sep=;
Timestamp [us];Power measure [W]
736.000000;42.7480
7018.000000;42.7480
26267.000000;42.7480
31913.000000;42.7480
40695.000000;42.7480
46405.000000;42.7480
52413.000000;42.7480
58044.000000;42.7480
64559.000000;42.7480
70158.000000;42.7480
76557.000000;42.7480
83496.000000;42.7480
90638.000000;42.7480
99919.000000;42.7960
106100.000000;42.7960
111957.000000;42.7960
117488.000000;42.7960
123960.000000;42.7960
130538.000000;42.7960
137403.000000;42.7960
142972.000000;42.7960
148554.000000;42.7960
154455.000000;42.7960
161296.000000;42.7960
167837.000000;42.7960
173393.000000;42.7960
179035.000000;42.7960
184616.000000;42.7960
190136.000000;42.7960
195695.000000;42.7960
201220.000000;42.7960
206769.000000;42.7580
213415.000000;42.7580
219709.000000;42.7580
225268.000000;42.7580
230821.000000;42.7580
236429.000000;42.7580
242043.000000;42.7580
247594.000000;42.7580
254159.000000;42.7580
260334.000000;42.7580
265934.000000;42.7580
271501.000000;42.7580
277121.000000;42.7580
282643.000000;42.7580
288290.000000;42.7580
293862.000000;42.7580
300551.000000;42.7580
306086.000000;42.6910
311622.000000;42.6910
317234.000000;42.6910
322800.000000;42.6910
328401.000000;42.6910
333985.000000;42.6910
339879.000000;42.6910
346535.000000;42.6910
352132.000000;42.6910
357761.000000;42.6910
363320.000000;42.6910
368871.000000;42.6910
374772.000000;42.6910
380390.000000;42.6910
387030.000000;42.6910
393272.000000;42.6910
400386.000000;42.6910
406558.000000;42.6910
412755.000000;42.6250
419876.000000;42.6250
425987.000000;42.6250
432960.000000;42.6250
439809.000000;42.6250
445859.000000;42.6250
451879.000000;42.6250
457595.000000;42.6250
463414.000000;42.6250
469366.000000;42.6250
475077.000000;42.6250
481113.000000;42.6250
486868.000000;42.6250
493064.000000;42.6250
498965.000000;42.6250
504932.000000;42.6250
510741.000000;42.6250
516753.000000;48.1010
522514.000000;48.1010
529052.000000;48.1010
534801.000000;48.1010
540751.000000;48.1010
546553.000000;48.1010
553083.000000;48.1010
559293.000000;48.1010
565105.000000;48.1010
571035.000000;48.1010
576825.000000;48.1010
582702.000000;48.1010
588505.000000;48.1010
594528.000000;48.1010
600330.000000;48.1010
606027.000000;48.1010
611903.000000;48.1010
617705.000000;57.8060
623983.000000;57.8060
629748.000000;57.8060
635783.000000;57.8060
641548.000000;57.8060
647512.000000;57.8060
653247.000000;57.8060
659428.000000;57.8060
665304.000000;57.8060
671279.000000;57.8060
677002.000000;57.8060
682744.000000;57.8060
688541.000000;57.8060
694469.000000;57.8060
700546.000000;57.8060
706315.000000;57.8060
712558.000000;57.8060
718772.000000;57.8060
724772.000000;67.9620
730783.000000;67.9620
738604.000000;67.9620
744670.000000;67.9620
750531.000000;67.9620
756320.000000;67.9620
762140.000000;67.9620
767914.000000;67.9620
773838.000000;67.9620
779608.000000;67.9620
785338.000000;67.9620
791284.000000;67.9620
797025.000000;67.9620
803148.000000;67.9620
808878.000000;67.9620
814830.000000;67.9620
820652.000000;67.9620
826496.000000;78.1380
832314.000000;78.1380
838122.000000;78.1380
844224.000000;78.1380
849978.000000;78.1380
856013.000000;78.1380
861807.000000;78.1380
867780.000000;78.1380
873539.000000;78.1380
879664.000000;78.1380
885493.000000;78.1380
891529.000000;78.1380
897402.000000;78.1380
903222.000000;78.1380
909380.000000;78.1380
915161.000000;78.1380
921177.000000;78.1380
927012.000000;88.3540
933024.000000;88.3540
938791.000000;88.3540
945000.000000;88.3540
950792.000000;88.3540
956674.000000;88.3540
962439.000000;88.3540
968269.000000;88.3540
974273.000000;88.3540
980053.000000;88.3540
985934.000000;88.3540
991778.000000;88.3540
997866.000000;88.3540
1003628.000000;88.3540
1009720.000000;88.3540
1015526.000000;88.3540
1021533.000000;88.3540
1027276.000000;88.3540
1033121.000000;98.5170
1039197.000000;98.5170
1045704.000000;98.5170
1051447.000000;98.5170
1057421.000000;98.5170
1063210.000000;98.5170
1069270.000000;98.5170
1075001.000000;98.5170
1081202.000000;98.5170
1087025.000000;98.5170
1093064.000000;98.5170
1098928.000000;98.5170
1104800.000000;98.5170
1110585.000000;98.5170
1116758.000000;98.5170
1122545.000000;98.5170
1128501.000000;98.5170
1134309.000000;108.8070
1140134.000000;108.8070
1146004.000000;108.8070
1151783.000000;108.8070
1157646.000000;108.8070
1163525.000000;108.8070
1169551.000000;108.8070
1175308.000000;108.8070
1181364.000000;108.8070
1187177.000000;108.8070
1193214.000000;108.8070
1199007.000000;108.8070
1204789.000000;108.8070
1210823.000000;108.8070
1216627.000000;108.8070
1222592.000000;108.8070
1228461.000000;108.8070
1234573.000000;108.8070
1240438.000000;119.0030
1246543.000000;119.0030
1252403.000000;119.0030
1258275.000000;119.0030
1263979.000000;119.0030
1269695.000000;119.0030
1275671.000000;119.0030
1281465.000000;119.0030
1287358.000000;119.0030
1293110.000000;119.0030
1299122.000000;119.0030
1304921.000000;119.0030
1311108.000000;119.0030
1316921.000000;119.0030
1322867.000000;119.0030
1328732.000000;119.0030
1334567.000000;119.0030
1340307.000000;129.3920
1346297.000000;129.3920
1352101.000000;129.3920
1357868.000000;129.3920
1363802.000000;129.3920
1369652.000000;129.3920
1375842.000000;129.3920
1381683.000000;129.3920
1387529.000000;129.3920
1393309.000000;129.3920
1399249.000000;129.3920
1405225.000000;129.3920
1410993.000000;129.3920
1416858.000000;129.3920
1422692.000000;129.3920
1428564.000000;129.3920
1434352.000000;129.3920
1440375.000000;129.3920
1446289.000000;139.7290
1452133.000000;139.7290
1457939.000000;139.7290
1463914.000000;139.7290
1469726.000000;139.7290
1475585.000000;139.7290
1481387.000000;139.7290
1487227.000000;139.7290
1492993.000000;139.7290
1498804.000000;139.7290
1504876.000000;139.7290
1510656.000000;139.7290
1516628.000000;139.7290
1522365.000000;139.7290
1528353.000000;139.7290
1534096.000000;139.7290
1540269.000000;139.7290
1546210.000000;144.5450
1552053.000000;144.5450
1557834.000000;144.5450
1563651.000000;144.5450
1569535.000000;144.5450
1575258.000000;144.5450
1581171.000000;144.5450
1586913.000000;144.5450
1592999.000000;144.5450
1598807.000000;144.5450
1604955.000000;144.5450
1610690.000000;144.5450
1616586.000000;144.5450
1622377.000000;144.5450
1628152.000000;144.5450
1634135.000000;144.5450
1639846.000000;144.5450
1645663.000000;144.5450
1651455.000000;145.2370
1657410.000000;145.2370
1663202.000000;145.2370
1669402.000000;145.2370
1675184.000000;145.2370
1681166.000000;145.2370
1686937.000000;145.2370
1692786.000000;145.2370
1698601.000000;145.2370
1704459.000000;145.2370
1710232.000000;145.2370
1715970.000000;145.2370
1722001.000000;145.2370
1727744.000000;145.2370
1733660.000000;145.2370
1739392.000000;145.2370
1745420.000000;145.2370
1751175.000000;145.2370
1757342.000000;145.4340
1763228.000000;145.4340
1769242.000000;145.4340
1775203.000000;145.4340
1781209.000000;145.4340
1787013.000000;145.4340
1793237.000000;145.4340
1798981.000000;145.4340
1805220.000000;145.4340
1811378.000000;145.4340
1817167.000000;145.4340
1823264.000000;145.4340
1829143.000000;145.4340
1834929.000000;145.4340
1840740.000000;145.4340
1846540.000000;145.4340
1852901.000000;145.4340
1858715.000000;145.6040
1865002.000000;145.6040
1870738.000000;145.6040
1876733.000000;145.6040
1882520.000000;145.6040
1888541.000000;145.6040
1894303.000000;145.6040
1900480.000000;145.6040
1906230.000000;145.6040
1911988.000000;145.6040
1917733.000000;145.6040
1923500.000000;145.6040
1929577.000000;145.6040
1935355.000000;145.6040
1941333.000000;145.6040
1947107.000000;145.6040
1953054.000000;145.6040
1958791.000000;145.6040
1964989.000000;145.6760
1970769.000000;145.6760
1976766.000000;145.6760
1982527.000000;145.6760
1988342.000000;145.6760
1994293.000000;145.6760
2000095.000000;145.6760
2005962.000000;145.6760
2011710.000000;145.6760
2017708.000000;145.6760
2023440.000000;145.6760
2029649.000000;145.6760
2035403.000000;145.6760
2041418.000000;145.6760
2047176.000000;145.6760
2053017.000000;145.6760
2058798.000000;145.6760
2064900.000000;145.9150
2070680.000000;145.9150
2076504.000000;145.9150
2082457.000000;145.9150
2088341.000000;145.9150
2094476.000000;145.9150
2100375.000000;145.9150
2106136.000000;145.9150
2111950.000000;145.9150
2117961.000000;145.9150
2123691.000000;145.9150
2129449.000000;145.9150
2135267.000000;145.9150
2141065.000000;145.9150
2146948.000000;145.9150
2152747.000000;145.9150
2158874.000000;145.9150
2164675.000000;145.9150
2170644.000000;145.9180
2176504.000000;145.9180
2182479.000000;145.9180
2188314.000000;145.9180
2194125.000000;145.9180
2199932.000000;145.9180
2205815.000000;145.9180
2211604.000000;145.9180
2217338.000000;145.9180
2223421.000000;145.9180
2229194.000000;145.9180
2237895.000000;145.9180
2243753.000000;145.9180
2249542.000000;145.9180
2255282.000000;145.9180
2261270.000000;145.9180
2267185.000000;145.9180
2272983.000000;146.1220
2278818.000000;146.1220
2284677.000000;146.1220
2290502.000000;146.1220
2296344.000000;146.1220
2302367.000000;146.1220
2308138.000000;146.1220
2313999.000000;146.1220
2319767.000000;146.1220
2325734.000000;146.1220
2331492.000000;146.1220
2337535.000000;146.1220
2343317.000000;146.1220
2349418.000000;146.1220
2355551.000000;146.1220
2361631.000000;146.1220
2367416.000000;146.1220
2373524.000000;146.0930
2379344.000000;146.0930
2385338.000000;146.0930
2391151.000000;146.0930
2397414.000000;146.0930
2403182.000000;146.0930
2409045.000000;146.0930
2414855.000000;146.0930
2420728.000000;146.0930
2426476.000000;146.0930
2432342.000000;146.0930
2438285.000000;146.0930
2444108.000000;146.0930
2449999.000000;146.0930
2455792.000000;146.0930
2461847.000000;146.0930
2467645.000000;146.0930
2473724.000000;146.0930
2479569.000000;146.1110
2485397.000000;146.1110
2491168.000000;146.1110
2496916.000000;146.1110
2502854.000000;146.1110
2509046.000000;146.1110
2514847.000000;146.1110
2520701.000000;146.1110
2526539.000000;146.1110
2532347.000000;146.1110
2538375.000000;146.1110
2544226.000000;146.1110
2550071.000000;146.1110
2555882.000000;146.1110
2561690.000000;146.1110
2567513.000000;146.1110
2573288.000000;146.1110
2579270.000000;146.1110
2585077.000000;146.3140
2591029.000000;146.3140
2596847.000000;146.3140
2602962.000000;146.3140
2608788.000000;146.3140
2614717.000000;146.3140
2620588.000000;146.3140
2626404.000000;146.3140
2632230.000000;146.3140
2638507.000000;146.3140
2644333.000000;146.3140
2650293.000000;146.3140
2656063.000000;146.3140
2661819.000000;146.3140
2667687.000000;146.3140
2673433.000000;146.3140
2679298.000000;146.3140
2685049.000000;146.2530
2691042.000000;146.2530
2696785.000000;146.2530
2702621.000000;146.2530
2708597.000000;146.2530
2714334.000000;146.2530
2720317.000000;146.2530
2726150.000000;146.2530
2732114.000000;146.2530
2737832.000000;146.2530
2743875.000000;146.2530
2749674.000000;146.2530
2755684.000000;146.2530
2761513.000000;146.2530
2767389.000000;146.2530
2773130.000000;146.2530
2778916.000000;146.2530
2784822.000000;146.2530
2790608.000000;146.4240
2796691.000000;146.4240
2802449.000000;146.4240
2808348.000000;146.4240
2814151.000000;146.4240
2820173.000000;146.4240
2825971.000000;146.4240
2832198.000000;146.4240
2838186.000000;146.4240
2844150.000000;146.4240
2849970.000000;146.4240
2855910.000000;146.4240
2861759.000000;146.4240
2867966.000000;146.4240
2873767.000000;146.4240
2879735.000000;146.4240
2885584.000000;146.4240
2891612.000000;146.4560
2897364.000000;146.4560
2903533.000000;146.4560
2909465.000000;146.4560
2915359.000000;146.4560
2922415.000000;146.4560
2928480.000000;146.4560
2934286.000000;146.4560
2940501.000000;146.4560
2946255.000000;146.4560
2952346.000000;146.4560
2958128.000000;146.4560
2964150.000000;146.4560
2969913.000000;146.4560
2976103.000000;146.4560
2981916.000000;146.4560
2987735.000000;146.4560
2993522.000000;146.4810
2999286.000000;146.4810
3005492.000000;146.4810
3011241.000000;146.4810
3017183.000000;146.4810
3022964.000000;146.4810
3028983.000000;146.4810
3034760.000000;146.4810
3040951.000000;146.4810
3046853.000000;146.4810
3052948.000000;146.4810
3058759.000000;146.4810
3064619.000000;146.4810
3070482.000000;146.4810
3076887.000000;146.4810
3082699.000000;146.4810
3088717.000000;146.4810
3094531.000000;146.4810
3100522.000000;146.4490
3106281.000000;146.4490
3112505.000000;146.4490
3118301.000000;146.4490
3124329.000000;146.4490
3130093.000000;146.4490
3135961.000000;146.4490
3141709.000000;146.4490
3147915.000000;146.4490
3153708.000000;146.4490
3159517.000000;146.4490
3165389.000000;146.4490
3171173.000000;146.4490
3177320.000000;146.4490
3183127.000000;146.4490
3188968.000000;146.4490
3194723.000000;146.4490
3200763.000000;146.4120
3206490.000000;146.4120
3212294.000000;146.4120
3218092.000000;146.4120
3223881.000000;146.4120
3229929.000000;146.4120
3235671.000000;146.4120
3241754.000000;146.4120
3247483.000000;146.4120
3253393.000000;146.4120
3259148.000000;146.4120
3265238.000000;146.4120
3271048.000000;146.4120
3276863.000000;146.4120
3282604.000000;146.4120
3288412.000000;146.4120
3294483.000000;146.4120
3300339.000000;146.4120
3306356.000000;146.4830
3312105.000000;146.4830
3318013.000000;146.4830
3323831.000000;146.4830
3329794.000000;146.4830
3335555.000000;146.4830
3341698.000000;146.4830
3347554.000000;146.4830
3353421.000000;146.4830
3359255.000000;146.4830
3365117.000000;146.4830
3371042.000000;146.4830
3376901.000000;146.4830
3382734.000000;146.4830
3388555.000000;146.4830
3394552.000000;146.4830
3400393.000000;146.4830
3406471.000000;146.5140
3412355.000000;146.5140
3418189.000000;146.5140
3423996.000000;146.5140
3429778.000000;146.5140
3435729.000000;146.5140
3441755.000000;146.5140
3447552.000000;146.5140
3453312.000000;146.5140
3459191.000000;146.5140
3465076.000000;146.5140
3471020.000000;146.5140
3476803.000000;146.5140
3482743.000000;146.5140
3488694.000000;146.5140
3494513.000000;146.5140
3500358.000000;146.5140
3506635.000000;146.5140
3512474.000000;146.6210
3518810.000000;146.6210
3524654.000000;146.6210
3530607.000000;146.6210
3536438.000000;146.6210
3542566.000000;146.6210
3548411.000000;146.6210
3554438.000000;146.6210
3560331.000000;146.6210
3566349.000000;146.6210
3572202.000000;146.6210
3578258.000000;146.6210
3583993.000000;146.6210
3590034.000000;146.6210
3595856.000000;146.6210
3601810.000000;146.6210
3607567.000000;146.6210
3613761.000000;146.3440
3619655.000000;146.3440
3625728.000000;146.3440
3631477.000000;146.3440
3637385.000000;146.3440
3643237.000000;146.3440
3649486.000000;146.3440
3655382.000000;146.3440
3661385.000000;146.3440
3667191.000000;146.3440
3672965.000000;146.3440
3678866.000000;146.3440
3684902.000000;146.3440
3690787.000000;146.3440
3696732.000000;146.3440
3702534.000000;146.3440
3708440.000000;146.3440
3714363.000000;146.3440
3720326.000000;146.3970
3726322.000000;146.3970
3732159.000000;146.3970
3738177.000000;146.3970
3744027.000000;146.3970
3750225.000000;146.3970
3756020.000000;146.3970
3762034.000000;146.3970
3767932.000000;146.3970
3773928.000000;146.3970
3779767.000000;146.3970
3785565.000000;146.3970
3791371.000000;146.3970
3797135.000000;146.3970
3803045.000000;146.3970
3808818.000000;146.3970
3814942.000000;146.3970
3820811.000000;146.2640
3826630.000000;146.2640
3832488.000000;146.2640
3838525.000000;146.2640
3844410.000000;146.2640
3850229.000000;146.2640
3856026.000000;146.2640
3861817.000000;146.2640
3867714.000000;146.2640
3873475.000000;146.2640
3879424.000000;146.2640
3885211.000000;146.2640
3891254.000000;146.2640
3897049.000000;146.2640
3903144.000000;146.2640
3908941.000000;146.2640
3915077.000000;146.2640
3920920.000000;146.2640
3926680.000000;146.2700
3932502.000000;146.2700
3938585.000000;146.2700
3944435.000000;146.2700
3950598.000000;146.2700
3956376.000000;146.2700
3962461.000000;146.2700
3968370.000000;146.2700
3974403.000000;146.2700
3980203.000000;146.2700
3986462.000000;146.2700
3992400.000000;146.2700
3998178.000000;146.2700
4003997.000000;146.2700
4009834.000000;146.2700
4015793.000000;146.2700
4021554.000000;146.2700
4027420.000000;146.3960
4033209.000000;146.3960
4039210.000000;146.3960
4045013.000000;146.3960
4051166.000000;146.3960
4057097.000000;146.3960
4062934.000000;146.3960
4068882.000000;146.3960
4074697.000000;146.3960
4080617.000000;146.3960
4086822.000000;146.3960
4092713.000000;146.3960
4098676.000000;146.3960
4104532.000000;146.3960
4110550.000000;146.3960
4116407.000000;146.3960
4122567.000000;146.3960
4128399.000000;146.3170
4134346.000000;146.3170
4140334.000000;146.3170
4146318.000000;146.3170
4152248.000000;146.3170
4158133.000000;146.3170
4163900.000000;146.3170
4169967.000000;146.3170
4175781.000000;146.3170
4181945.000000;146.3170
4187760.000000;146.3170
4193758.000000;146.3170
4199521.000000;146.3170
4205500.000000;146.3170
4211302.000000;146.3170
4217107.000000;146.3170
4222887.000000;146.3170
4228740.000000;146.3170
4234702.000000;146.3510
4240555.000000;146.3510
4246566.000000;146.3510
4252373.000000;146.3510
4258321.000000;146.3510
4264094.000000;146.3510
4270131.000000;146.3510
4276014.000000;146.3510
4281842.000000;146.3510
4287713.000000;146.3510
4293552.000000;146.3510
4299363.000000;146.3510
4305299.000000;146.3510
4311184.000000;146.3510
4316981.000000;146.3510
4322846.000000;146.3510
4328699.000000;146.3510
4334704.000000;146.1900
4340553.000000;146.1900
4346715.000000;146.1900
4352669.000000;146.1900
4358540.000000;146.1900
4364438.000000;146.1900
4370505.000000;146.1900
4376361.000000;146.1900
4382600.000000;146.1900
4388473.000000;146.1900
4394435.000000;146.1900
4400274.000000;146.1900
4406412.000000;146.1900
4412283.000000;146.1900
4418401.000000;146.1900
4424270.000000;146.1900
4430091.000000;146.1900
4435987.000000;146.1900
4441936.000000;146.3170
4447751.000000;146.3170
4453902.000000;146.3170
4459698.000000;146.3170
4465738.000000;146.3170
4471601.000000;146.3170
4477694.000000;146.3170
4483560.000000;146.3170
4489771.000000;146.3170
4495665.000000;146.3170
4501538.000000;146.3170
4507436.000000;146.3170
4513209.000000;146.3170
4519156.000000;146.3170
4525667.000000;146.3170
4531814.000000;146.3170
4537865.000000;146.3170
4543665.000000;146.1770
4549656.000000;146.1770
4555806.000000;146.1770
4561803.000000;146.1770
4567657.000000;146.1770
4573569.000000;146.1770
4579366.000000;146.1770
4585355.000000;146.1770
4591144.000000;146.1770
4597294.000000;146.1770
4603136.000000;146.1770
4609093.000000;146.1770
4614868.000000;146.1770
4620860.000000;146.1770
4626642.000000;146.1770
4632950.000000;146.1770
4638785.000000;146.1770
4644579.000000;146.3460
4650349.000000;146.3460
4656120.000000;146.3460
4662274.000000;146.3460
4668122.000000;146.3460
4674201.000000;146.3460
4680028.000000;146.3460
4686085.000000;146.3460
4691881.000000;146.3460
4698037.000000;146.3460
4703911.000000;146.3460
4709727.000000;146.3460
4715569.000000;146.3460
4721784.000000;146.3460
4727574.000000;146.3460
4733345.000000;146.3460
4739308.000000;146.3460
4745354.000000;146.3460
4751279.000000;146.3270
4757100.000000;146.3270
4763189.000000;146.3270
4769078.000000;146.3270
4774950.000000;146.3270
4780798.000000;146.3270
4786786.000000;146.3270
4792624.000000;146.3270
4798466.000000;146.3270
4804269.000000;146.3270
4810039.000000;146.3270
4816062.000000;146.3270
4821912.000000;146.3270
4828097.000000;146.3270
4834015.000000;146.3270
4839786.000000;146.3270
4845639.000000;146.3270
4851802.000000;146.2380
4857612.000000;146.2380
4863497.000000;146.2380
4869419.000000;146.2380
4875213.000000;146.2380
4881014.000000;146.2380
4887000.000000;146.2380
4892853.000000;146.2380
4898855.000000;146.2380
4904677.000000;146.2380
4910566.000000;146.2380
4916523.000000;146.2380
4922323.000000;146.2380
4928292.000000;146.2380
4934060.000000;146.2380
4939785.000000;146.2380
4945595.000000;146.2380
4951515.000000;146.2380
4957295.000000;146.3720
4963171.000000;146.3720
4968983.000000;146.3720
4974747.000000;146.3720
4980782.000000;146.3720
4986803.000000;146.3720
4992783.000000;146.3720
4998565.000000;146.3720
5004506.000000;146.3720
5010489.000000;146.3720
5016308.000000;146.3720
5022170.000000;146.3720
5028394.000000;146.3720
5034239.000000;146.3720
5040272.000000;146.3720
5046216.000000;146.3720
5052281.000000;146.3720
5058158.000000;146.2890
5064350.000000;146.2890
5070198.000000;146.2890
5076064.000000;146.2890
5081879.000000;146.2890
5087772.000000;146.2890
5093591.000000;146.2890
5099626.000000;146.2890
5105505.000000;146.2890
5111621.000000;146.2890
5117465.000000;146.2890
5123314.000000;146.2890
5129172.000000;146.2890
5135243.000000;146.2890
5141127.000000;146.2890
5147049.000000;146.2890
5152888.000000;146.2890
5158635.000000;146.2890
5164872.000000;146.3950
5171189.000000;146.3950
5177073.000000;146.3950
5183030.000000;146.3950
5188926.000000;146.3950
5194749.000000;146.3950
5200696.000000;146.3950
5206518.000000;146.3950
5212520.000000;146.3950
5218403.000000;146.3950
5224203.000000;146.3950
5230014.000000;146.3950
5236398.000000;146.3950
5242132.000000;146.3950
5248186.000000;146.3950
5254047.000000;146.3950
5260020.000000;146.3950
5265882.000000;146.4120
5272082.000000;146.4120
5277900.000000;146.4120
5283917.000000;146.4120
5289705.000000;146.4120
5295515.000000;146.4120
5301296.000000;146.4120
5307834.000000;146.4120
5313604.000000;146.4120
5319960.000000;146.4120
5325808.000000;146.4120
5331832.000000;146.4120
5337615.000000;146.4120
5343848.000000;146.4120
5349713.000000;146.4120
5355766.000000;146.4120
5361616.000000;146.4120
5367698.000000;146.4260
5373725.000000;146.4260
5379806.000000;146.4260
5385630.000000;146.4260
5391514.000000;146.4260
5397410.000000;146.4260
5403420.000000;146.4260
5409214.000000;146.4260
5415317.000000;146.4260
5421146.000000;146.4260
5427147.000000;146.4260
5432970.000000;146.4260
5438771.000000;146.4260
5444653.000000;146.4260
5450948.000000;146.4260
5456750.000000;146.4260
5463103.000000;146.4260
5468895.000000;146.4260
5474996.000000;146.3220
5480910.000000;146.3220
5487005.000000;146.3220
5492864.000000;146.3220
5498826.000000;146.3220
5504706.000000;146.3220
5510520.000000;146.3220
5516325.000000;146.3220
5522631.000000;146.3220
5528478.000000;146.3220
5534478.000000;146.3220
5540334.000000;146.3220
5546373.000000;146.3220
5552227.000000;146.3220
5558451.000000;146.3220
5564332.000000;146.3220
5570361.000000;146.3220
5576187.000000;146.3790
5581965.000000;146.3790
5587766.000000;146.3790
5593780.000000;146.3790
5599630.000000;146.3790
5605499.000000;146.3790
5611482.000000;146.3790
5617269.000000;146.3790
5623258.000000;146.3790
5629083.000000;146.3790
5635029.000000;146.3790
5640828.000000;146.3790
5646825.000000;146.3790
5652628.000000;146.3790
5658414.000000;146.3790
5664267.000000;146.3790
5670064.000000;146.3790
5676033.000000;146.3790
5681868.000000;146.5320
5687920.000000;146.5320
5693730.000000;146.5320
5699658.000000;146.5320
5705551.000000;146.5320
5711504.000000;146.5320
5717325.000000;146.5320
5723122.000000;146.5320
5728974.000000;146.5320
5734793.000000;146.5320
5740655.000000;146.5320
5746603.000000;146.5320
5752525.000000;146.5320
5758372.000000;146.5320
5764250.000000;146.5320
5770021.000000;146.5320
5776136.000000;146.5320
5781931.000000;146.5560
5788029.000000;146.5560
5793853.000000;146.5560
5799749.000000;146.5560
5805510.000000;146.5560
5811520.000000;146.5560
5817513.000000;146.5560
5823671.000000;146.5560
5829495.000000;146.5560
5835530.000000;146.5560
5841354.000000;146.5560
5847388.000000;146.5560
5853250.000000;146.5560
5859472.000000;146.5560
5865371.000000;146.5560
5871239.000000;146.5560
5877087.000000;146.5560
5882924.000000;146.5560
5888810.000000;146.7830
5894622.000000;146.7830
5900551.000000;146.7830
5906385.000000;146.7830
5912390.000000;146.7830
5918287.000000;146.7830
5924298.000000;146.7830
5930273.000000;146.7830
5936060.000000;146.7830
5941874.000000;146.7830
5947826.000000;146.7830
5953803.000000;146.7830
5959972.000000;146.7830
5965826.000000;146.7830
5971797.000000;146.7830
5977612.000000;146.7830
5983629.000000;146.7830
5989455.000000;146.5010
5995642.000000;146.5010
6001510.000000;146.5010
6007367.000000;146.5010
6013161.000000;146.5010
6018981.000000;146.5010
6024845.000000;146.5010
6030978.000000;146.5010
6036880.000000;146.5010
6042996.000000;146.5010
6048882.000000;146.5010
6054912.000000;146.5010
6060736.000000;146.5010
6066967.000000;146.5010
6072791.000000;146.5010
6078659.000000;146.5010
6084500.000000;146.5010
6090364.000000;146.6200
6096379.000000;146.6200
6102213.000000;146.6200
6108109.000000;146.6200
6114012.000000;146.6200
6120032.000000;146.6200
6125953.000000;146.6200
6131933.000000;146.6200
6137761.000000;146.6200
6143666.000000;146.6200
6149509.000000;146.6200
6155383.000000;146.6200
6161321.000000;146.6200
6167627.000000;146.6200
6173431.000000;146.6200
6179456.000000;146.6200
6185336.000000;146.6200
6191371.000000;146.6200
6197155.000000;146.5970
6203365.000000;146.5970
6209203.000000;146.5970
6215334.000000;146.5970
6221116.000000;146.5970
6226973.000000;146.5970
6232863.000000;146.5970
6239178.000000;146.5970
6245043.000000;146.5970
6251060.000000;146.5970
6256889.000000;146.5970
6262907.000000;146.5970
6268776.000000;146.5970
6274983.000000;146.5970
6280808.000000;146.5970
6286899.000000;146.5970
6292810.000000;146.5970
6298634.000000;146.6740
6304478.000000;146.6740
6310814.000000;146.6740
6316741.000000;146.6740
6322747.000000;146.6740
6328618.000000;146.6740
6334617.000000;146.6740
6340445.000000;146.6740
6346671.000000;146.6740
6352468.000000;146.6740
6358485.000000;146.6740
6364396.000000;146.6740
6370283.000000;146.6740
6376132.000000;146.6740
6382469.000000;146.6740
6388348.000000;146.6740
6394363.000000;146.6740
6400230.000000;146.8920
6406227.000000;146.8920
6412070.000000;146.8920
6418292.000000;146.8920
6424131.000000;146.8920
6430126.000000;146.8920
6435933.000000;146.8920
6441794.000000;146.8920
6447667.000000;146.8920
6453741.000000;146.8920
6459550.000000;146.8920
6465466.000000;146.8920
6471348.000000;146.8920
6477193.000000;146.8920
6483285.000000;146.8920
6489202.000000;146.8920
6495030.000000;146.8920
6501391.000000;146.8920
6507624.000000;146.9970
6513466.000000;146.9970
6519307.000000;146.9970
6525159.000000;146.9970
6531114.000000;146.9970
6536992.000000;146.9970
6542852.000000;146.9970
6548769.000000;146.9970
6554814.000000;146.9970
6560723.000000;146.9970
6566772.000000;146.9970
6572665.000000;146.9970
6578615.000000;146.9970
6584616.000000;146.9970
6590477.000000;146.9970
6596395.000000;146.9970
6602283.000000;146.9970
6608163.000000;147.1870
6614045.000000;147.1870
6619825.000000;147.1870
6625681.000000;147.1870
6631619.000000;147.1870
6637483.000000;147.1870
6643308.000000;147.1870
6649162.000000;147.1870
6655197.000000;147.1870
6661006.000000;147.1870
6666832.000000;147.1870
6672713.000000;147.1870
6678556.000000;147.1870
6684479.000000;147.1870
6690323.000000;147.1870
6696288.000000;147.1870
6702363.000000;147.1870
6708243.000000;147.1870
6714148.000000;147.1190
6719984.000000;147.1190
6725858.000000;147.1190
6731782.000000;147.1190
6737729.000000;147.1190
6743561.000000;147.1190
6749473.000000;147.1190
6755610.000000;147.1190
6761461.000000;147.1190
6767675.000000;147.1190
6773493.000000;147.1190
6779625.000000;147.1190
6785560.000000;147.1190
6791521.000000;147.1190
6797325.000000;147.1190
6803413.000000;147.1190
6809334.000000;147.1190
6815171.000000;147.2370
6821010.000000;147.2370
6827048.000000;147.2370
6832918.000000;147.2370
6839183.000000;147.2370
6845106.000000;147.2370
6851135.000000;147.2370
6856920.000000;147.2370
6862970.000000;147.2370
6868817.000000;147.2370
6875041.000000;147.2370
6880888.000000;147.2370
6886678.000000;147.2370
6892508.000000;147.2370
6898488.000000;147.2370
6904382.000000;147.2370
6910641.000000;147.2370
6916564.000000;147.2370
6922617.000000;147.2940
6928490.000000;147.2940
6934476.000000;147.2940
6940369.000000;147.2940
6946615.000000;147.2940
6952502.000000;147.2940
6958356.000000;147.2940
6964284.000000;147.2940
6970453.000000;147.2940
6976375.000000;147.2940
6982596.000000;147.2940
6988458.000000;147.2940
6994491.000000;147.2940
7000370.000000;147.2940
7006390.000000;147.2940
7012274.000000;147.2940
7018358.000000;147.2940
7032940.000000;147.4870
7038770.000000;147.4870
7044826.000000;147.4870
7050714.000000;147.4870
7056814.000000;147.4870
7062652.000000;147.4870
7068768.000000;147.4870
7074642.000000;147.4870
7080623.000000;147.4870
7086411.000000;147.4870
7092466.000000;147.4870
7098366.000000;147.4870
7104298.000000;147.4870
7110145.000000;147.4870
7116220.000000;147.4870
7122097.000000;147.4870
7128140.000000;147.6270
7133993.000000;147.6270
7140265.000000;147.6270
7146061.000000;147.6270
7152106.000000;147.6270
7157934.000000;147.6270
7163927.000000;147.6270
7180929.000000;147.6270
7186772.000000;147.6270
7192871.000000;147.6270
7198714.000000;147.6270
7204801.000000;147.6270
7210599.000000;147.6270
7216513.000000;147.6270
7222484.000000;147.6270
7228518.000000;147.5270
7234366.000000;147.5270
7240316.000000;147.5270
7246161.000000;147.5270
7252565.000000;147.5270
7258412.000000;147.5270
7264541.000000;147.5270
7270343.000000;147.5270
7276427.000000;147.5270
7282360.000000;147.5270
7288170.000000;147.5270
7293959.000000;147.5270
7300006.000000;147.5270
7305856.000000;147.5270
7311737.000000;147.5270
7317559.000000;147.5270
7323317.000000;147.5270
7329207.000000;147.5270
7335176.000000;147.6740
7341055.000000;147.6740
7347073.000000;147.6740
7352888.000000;147.6740
7358719.000000;147.6740
7364706.000000;147.6740
7370587.000000;147.6740
7376588.000000;147.6740
7382515.000000;147.6740
7388439.000000;147.6740
7394269.000000;147.6740
7400364.000000;147.6740
7406153.000000;147.6740
7412402.000000;147.6740
7418254.000000;147.6740
7424338.000000;147.6740
7430196.000000;147.6740
7436279.000000;147.6070
7442092.000000;147.6070
7448236.000000;147.6070
7454039.000000;147.6070
7459908.000000;147.6070
7465775.000000;147.6070
7471835.000000;147.6070
7477638.000000;147.6070
7483919.000000;147.6070
7489767.000000;147.6070
7495798.000000;147.6070
7501664.000000;147.6070
7507766.000000;147.6070
7513694.000000;147.6070
7519825.000000;147.6070
7525707.000000;147.6070
7531605.000000;147.6070
7537465.000000;147.6570
7543589.000000;147.6570
7549424.000000;147.6570
7555672.000000;147.6570
7561517.000000;147.6570
7567548.000000;147.6570
7573351.000000;147.6570
7579445.000000;147.6570
7585349.000000;147.6570
7591628.000000;147.6570
7597519.000000;147.6570
7603701.000000;147.6570
7609546.000000;147.6570
7615578.000000;147.6570
7621406.000000;147.6570
7627612.000000;147.6570
7633405.000000;147.6570
7639367.000000;147.6570
7645244.000000;147.5650
7651310.000000;147.5650
7657181.000000;147.5650
7663203.000000;147.5650
7669114.000000;147.5650
7674885.000000;147.5650
7681066.000000;147.5650
7687098.000000;147.5650
7692935.000000;147.5650
7699136.000000;147.5650
7704970.000000;147.5650
7711042.000000;147.5650
7716896.000000;147.5650
7722853.000000;147.5650
7728756.000000;147.5650
7734881.000000;147.5650
7746243.000000;147.5030
7752112.000000;147.5030
7758314.000000;147.5030
7764117.000000;147.5030
7770165.000000;147.5030
7776131.000000;147.5030
7782075.000000;147.5030
7787963.000000;147.5030
7794000.000000;147.5030
7799810.000000;147.5030
7805896.000000;147.5030
7811834.000000;147.5030
7817696.000000;147.5030
7823494.000000;147.5030
7829818.000000;147.5030
7836033.000000;147.5030
7841937.000000;147.5030
7847752.000000;147.4150
7853756.000000;147.4150
7859605.000000;147.4150
7865757.000000;147.4150
7871636.000000;147.4150
7877515.000000;147.4150
7883379.000000;147.4150
7889231.000000;147.4150
7895086.000000;147.4150
7901413.000000;147.4150
7907235.000000;147.4150
7913275.000000;147.4150
7919152.000000;147.4150
7925187.000000;147.4150
7931028.000000;147.4150
7937328.000000;147.4150
7943179.000000;147.4150
7949187.000000;147.4150
7954982.000000;147.3270
7960922.000000;147.3270
7966779.000000;147.3270
7973141.000000;147.3270
7978990.000000;147.3270
7985080.000000;147.3270
7990993.000000;147.3270
7997155.000000;147.3270
8003083.000000;147.3270
8009106.000000;147.3270
8015021.000000;147.3270
8020914.000000;147.3270
8026728.000000;147.3270
8032683.000000;147.3270
8038508.000000;147.3270
8044898.000000;147.3270
8050729.000000;147.3270
8056764.000000;147.4830
8062677.000000;147.4830
8068790.000000;147.4830
8074631.000000;147.4830
8080758.000000;147.4830
8086587.000000;147.4830
8092506.000000;147.4830
8098397.000000;147.4830
8104350.000000;147.4830
8110194.000000;147.4830
8116574.000000;147.4830
8122388.000000;147.4830
8128507.000000;147.4830
8134400.000000;147.4830
8140474.000000;147.4830
8146285.000000;147.4830
8152482.000000;147.4830
8158288.000000;147.3310
8164299.000000;147.3310
8170114.000000;147.3310
8176029.000000;147.3310
8181872.000000;147.3310
8188210.000000;147.3310
8194014.000000;147.3310
8200057.000000;147.3310
8205889.000000;147.3310
8211877.000000;147.3310
8217673.000000;147.3310
8223920.000000;147.3310
8229815.000000;147.3310
8235818.000000;147.3310
8241688.000000;147.3310
8247504.000000;147.3310
8253280.000000;147.3310
8259622.000000;147.3310
8265524.000000;147.6110
8271592.000000;147.6110
8277453.000000;147.6110
8283488.000000;147.6110
8289351.000000;147.6110
8295542.000000;147.6110
8301419.000000;147.6110
8307456.000000;147.6110
8313277.000000;147.6110
8319130.000000;147.6110
8324928.000000;147.6110
8330815.000000;147.6110
8336821.000000;147.6110
8342599.000000;147.6110
8348736.000000;147.6110
8354540.000000;147.6110
8360652.000000;147.6110
8366537.000000;147.4320
8372599.000000;147.4320
8378462.000000;147.4320
8384725.000000;147.4320
8390567.000000;147.4320
8396659.000000;147.4320
8402474.000000;147.4320
8408381.000000;147.4320
8414219.000000;147.4320
8420474.000000;147.4320
8426331.000000;147.4320
8432376.000000;147.4320
8438210.000000;147.4320
8444326.000000;147.4320
8450314.000000;147.4320
8456559.000000;147.4320
8462397.000000;147.4320
8468305.000000;147.2820
8474154.000000;147.2820
8480053.000000;147.2820
8485916.000000;147.2820
8492176.000000;147.2820
8498018.000000;147.2820
8504097.000000;147.2820
8509962.000000;147.2820
8516030.000000;147.2820
8521909.000000;147.2820
8528156.000000;147.2820
8534030.000000;147.2820
8539899.000000;147.2820
8545788.000000;147.2820
8551694.000000;147.2820
8557651.000000;147.2820
8563956.000000;147.2820
8569846.000000;147.3320
8575978.000000;147.3320
8581861.000000;147.3320
8587956.000000;147.3320
8593856.000000;147.3320
8600026.000000;147.3320
8605889.000000;147.3320
8611807.000000;147.3320
8617686.000000;147.3320
8623497.000000;147.3320
8629353.000000;147.3320
8635593.000000;147.3320
8641499.000000;147.3320
8647556.000000;147.3320
8653485.000000;147.3320
8659535.000000;147.3320
8665464.000000;147.3320
8671748.000000;147.3320
8677609.000000;147.2790
8683467.000000;147.2790
8689333.000000;147.2790
8695301.000000;147.2790
8701145.000000;147.2790
8707369.000000;147.2790
8713267.000000;147.2790
8719388.000000;147.2790
8725290.000000;147.2790
8731291.000000;147.2790
8737142.000000;147.2790
8743404.000000;147.2790
8749342.000000;147.2790
8755168.000000;147.2790
8760976.000000;147.2790
8766819.000000;147.2790
8772761.000000;147.2790
8779060.000000;147.4360
8784875.000000;147.4360
8790973.000000;147.4360
8796853.000000;147.4360
8802918.000000;147.4360
8808849.000000;147.4360
8815087.000000;147.4360
8821040.000000;147.4360
8826839.000000;147.4360
8832681.000000;147.4360
8838515.000000;147.4360
8844461.000000;147.4360
8850725.000000;147.4360
8856582.000000;147.4360
8862633.000000;147.4360
8868535.000000;147.4360
8874582.000000;147.4360
8880454.000000;147.4490
8886691.000000;147.4490
8892535.000000;147.4490
8898492.000000;147.4490
8904350.000000;147.4490
8910196.000000;147.4490
8916034.000000;147.4490
8922181.000000;147.4490
8928112.000000;147.4490
8934273.000000;147.4490
8940157.000000;147.4490
8946248.000000;147.4490
8952056.000000;147.4490
8958269.000000;147.4490
8964373.000000;147.4490
8975258.000000;147.4490
8981354.000000;147.4490
8987219.000000;147.4090
8992998.000000;147.4090
8998960.000000;147.4090
9004850.000000;147.4090
9010861.000000;147.4090
9016756.000000;147.4090
9022774.000000;147.4090
9028725.000000;147.4090
9034580.000000;147.4090
9040508.000000;147.4090
9046524.000000;147.4090
9052431.000000;147.4090
9058708.000000;147.4090
9064693.000000;147.4090
9070658.000000;147.4090
9076627.000000;147.4090
9082632.000000;147.4090
9088555.000000;147.2280
9094552.000000;147.2280
9100509.000000;147.2280
9106372.000000;147.2280
9112253.000000;147.2280
9118311.000000;147.2280
9124213.000000;147.2280
9130510.000000;147.2280
9136532.000000;147.2280
9142457.000000;147.2280
9148361.000000;147.2280
9154336.000000;147.2280
9160165.000000;147.2280
9166264.000000;147.2280
9172173.000000;147.2280
9177996.000000;147.2280
9183863.000000;147.2280
9189696.000000;147.2470
9195539.000000;147.2470
9201851.000000;147.2470
9207596.000000;147.2470
9213610.000000;147.2470
9219463.000000;147.2470
9225506.000000;147.2470
9231362.000000;147.2470
9237609.000000;147.2470
9243444.000000;147.2470
9249485.000000;147.2470
9255318.000000;147.2470
9261129.000000;147.2470
9267059.000000;147.2470
9273468.000000;147.2470
9279278.000000;147.2470
9285331.000000;147.2470
9291142.000000;147.2470
9297317.000000;147.1920
9303134.000000;147.1920
9309262.000000;147.1920
9315197.000000;147.1920
9321339.000000;147.1920
9327339.000000;147.1920
9333201.000000;147.1920
9339009.000000;147.1920
9345373.000000;147.1920
9351222.000000;147.1920
9357292.000000;147.1920
9363178.000000;147.1920
9369260.000000;147.1920
9375218.000000;147.1920
9381276.000000;147.1920
9387129.000000;147.1920
9392931.000000;147.1920
9398791.000000;147.2450
9404828.000000;147.2450
9410732.000000;147.2450
9417097.000000;147.2450
9422967.000000;147.2450
9429048.000000;147.2450
9434947.000000;147.2450
9440957.000000;147.2450
9446795.000000;147.2450
9452936.000000;147.2450
9459093.000000;147.2450
9467515.000000;147.2450
9473416.000000;147.2450
9479393.000000;147.2450
9485566.000000;147.2450
9491392.000000;147.2450
9497243.000000;147.2450
9503251.000000;147.2480
9509503.000000;147.2480
9515337.000000;147.2480
9521346.000000;147.2480
9527208.000000;147.2480
9533196.000000;147.2480
9539185.000000;147.2480
9545311.000000;147.2480
9551221.000000;147.2480
9558212.000000;147.2480
9564401.000000;147.2480
9570323.000000;147.2480
9576450.000000;147.2480
9582290.000000;147.2480
9588588.000000;147.2480
9594410.000000;147.2480
9600576.000000;147.2480
9606393.000000;146.6200
9612483.000000;146.6200
9618477.000000;146.6200
9624455.000000;146.6200
9630278.000000;146.6200
9636346.000000;146.6200
9642190.000000;146.6200
9648294.000000;146.6200
9654169.000000;146.6200
9660465.000000;146.6200
9666377.000000;146.6200
9672368.000000;146.6200
9678263.000000;146.6200
9684275.000000;146.6200
9690078.000000;146.6200
9695984.000000;146.6200
9701747.000000;146.6200
9707855.000000;146.6040
9713712.000000;146.6040
9719806.000000;146.6040
9725631.000000;146.6040
9731881.000000;146.6040
9737792.000000;146.6040
9743803.000000;146.6040
9749648.000000;146.6040
9755735.000000;146.6040
9761555.000000;146.6040
9767365.000000;146.6040
9773135.000000;146.6040
9778964.000000;146.6040
9784903.000000;146.6040
9790776.000000;146.6040
9796875.000000;146.6040
9802988.000000;146.6040
9808817.000000;146.3240
9814789.000000;146.3240
9820711.000000;146.3240
9826619.000000;146.3240
9832532.000000;146.3240
9838463.000000;146.3240
9844375.000000;146.3240
9850225.000000;146.3240
9856263.000000;146.3240
9862113.000000;146.3240
9868355.000000;146.3240
9874189.000000;146.3240
9880115.000000;146.3240
9885970.000000;146.3240
9892042.000000;146.3240
9897909.000000;146.3240
9903765.000000;146.3240
9909619.000000;146.3240
9915512.000000;146.2660
9921420.000000;146.2660
9927332.000000;146.2660
9933180.000000;146.2660
9939355.000000;146.2660
9945256.000000;146.2660
9951357.000000;146.2660
9957210.000000;146.2660
9963309.000000;146.2660
9969181.000000;146.2660
9975140.000000;146.2660
9980952.000000;146.2660
9986832.000000;146.2660
9992846.000000;146.2660
9998713.000000;146.2660
10004721.000000;146.2660
10010663.000000;146.2660
10016577.000000;146.1790
10022634.000000;146.1790
10028538.000000;146.1790
10034435.000000;146.1790
10040567.000000;146.1790
10046490.000000;146.1790
10052502.000000;146.1790
10058366.000000;146.1790
10064540.000000;146.1790
10070496.000000;146.1790
10076726.000000;146.1790
10082761.000000;146.1790
10088643.000000;146.1790
10094553.000000;146.1790
10100546.000000;146.1790
10106370.000000;146.1790
10112467.000000;146.1790
10118373.000000;146.0790
10124356.000000;146.0790
10130328.000000;146.0790
10136351.000000;146.0790
10142651.000000;146.0790
10148592.000000;146.0790
10154514.000000;146.0790
10160447.000000;146.0790
10166528.000000;146.0790
10172455.000000;146.0790
10178429.000000;146.0790
10184590.000000;146.0790
10190424.000000;146.0790
10196468.000000;146.0790
10202271.000000;146.0790
10208371.000000;146.0790
10214226.000000;146.0790
10220272.000000;146.0790
10228248.000000;145.7940
10234146.000000;145.7940
10240013.000000;145.7940
10245989.000000;145.7940
10251889.000000;145.7940
10257719.000000;145.7940
10263740.000000;145.7940
10269609.000000;145.7940
10275526.000000;145.7940
10281398.000000;145.7940
10287412.000000;145.7940
10293330.000000;145.7940
10299547.000000;145.7940
10305776.000000;145.7940
10311637.000000;145.7940
10317753.000000;145.7940
10323960.000000;145.7940
10330016.000000;145.4420
10336083.000000;145.4420
10341932.000000;145.4420
10347749.000000;145.4420
10353601.000000;145.4420
10359428.000000;145.4420
10365735.000000;145.4420
10371949.000000;145.4420
10377942.000000;145.4420
10384567.000000;145.4420
10390771.000000;145.4420
10396810.000000;145.4420
10403208.000000;145.4420
10409051.000000;145.4420
10414921.000000;145.4420
10420777.000000;145.4420
10426578.000000;145.4420
10432704.000000;145.4330
10438552.000000;145.4330
10444675.000000;145.4330
10450526.000000;145.4330
10456718.000000;145.4330
10462548.000000;145.4330
10468522.000000;145.4330
10474357.000000;145.4330
10480422.000000;145.4330
10486272.000000;145.4330
10492099.000000;145.4330
10498043.000000;145.4330
10504163.000000;145.4330
10510007.000000;145.4330
10516081.000000;145.4330
10521908.000000;145.4330
10528272.000000;145.4330
10534128.000000;145.4240
10540125.000000;145.4240
10546099.000000;145.4240
10552083.000000;145.4240
10557941.000000;145.4240
10563733.000000;145.4240
10569643.000000;145.4240
10575666.000000;145.4240
10581535.000000;145.4240
10587881.000000;145.4240
10593716.000000;145.4240
10599956.000000;145.4240
10605867.000000;145.4240
10611818.000000;145.4240
10617726.000000;145.4240
10623863.000000;145.4240
10629729.000000;145.4240
10635595.000000;145.8760
10641459.000000;145.8760
10647484.000000;145.8760
10653351.000000;145.8760
10659650.000000;145.8760
10665581.000000;145.8760
10671479.000000;145.8760
10677440.000000;145.8760
10683411.000000;145.8760
10689300.000000;145.8760
10695341.000000;145.8760
10701190.000000;145.8760
10707115.000000;145.8760
10715544.000000;145.8760
10721499.000000;145.8760
10727547.000000;145.8760
10733412.000000;145.8760
10739639.000000;145.7850
10745747.000000;145.7850
10751610.000000;145.7850
10757606.000000;145.7850
10763818.000000;145.7850
10770056.000000;145.7850
10775944.000000;145.7850
10781951.000000;145.7850
10789627.000000;145.7850
10795517.000000;145.7850
10801393.000000;145.7850
10807261.000000;145.7850
10813233.000000;145.7850
10819087.000000;145.7850
10825221.000000;145.7850
10831095.000000;145.7850
10837166.000000;145.7850
10843029.000000;145.7170
10849085.000000;145.7170
10854972.000000;145.7170
10861280.000000;145.7170
10867127.000000;145.7170
10872998.000000;145.7170
10878830.000000;145.7170
10884826.000000;145.7170
10890704.000000;145.7170
10896810.000000;145.7170
10902688.000000;145.7170
10908744.000000;145.7170
10914615.000000;145.7170
10920733.000000;145.7170
10926584.000000;145.7170
10932959.000000;145.7170
10938987.000000;145.7170
10944896.000000;145.7410
10950869.000000;145.7410
10957007.000000;145.7410
10962901.000000;145.7410
10969176.000000;145.7410
10975084.000000;145.7410
10981063.000000;145.7410
10986935.000000;145.7410
10993010.000000;145.7410
10998869.000000;145.7410
11004965.000000;145.7410
11010798.000000;145.7410
11016714.000000;145.7410
11022754.000000;145.7410
11028899.000000;145.7410
11034779.000000;145.7410
11040935.000000;145.7410
11047020.000000;145.7410
11052938.000000;145.7940
11058814.000000;145.7940
11064753.000000;145.7940
11070596.000000;145.7940
11076638.000000;145.7940
11082504.000000;145.7940
11088348.000000;145.7940
11094265.000000;145.7940
11100356.000000;145.7940
11106244.000000;145.7940
11112561.000000;145.7940
11118396.000000;145.7940
11124424.000000;145.7940
11130293.000000;145.7940
11136419.000000;145.7940
11142291.000000;145.7940
11148418.000000;145.7940
11154412.000000;145.8040
11160388.000000;145.8040
11166229.000000;145.8040
11172110.000000;145.8040
11177931.000000;145.8040
11183917.000000;145.8040
11189785.000000;145.8040
11195772.000000;145.8040
11201665.000000;145.8040
11207684.000000;145.8040
11213629.000000;145.8040
11219660.000000;145.8040
11225699.000000;145.8040
11231615.000000;145.8040
11237652.000000;145.8040
11243548.000000;145.8040
11249441.000000;145.8040
11255401.000000;146.1590
11261273.000000;146.1590
11267353.000000;146.1590
11273185.000000;146.1590
11279281.000000;146.1590
11285118.000000;146.1590
11291178.000000;146.1590
11297036.000000;146.1590
11302997.000000;146.1590
11308866.000000;146.1590
11315006.000000;146.1590
11320963.000000;146.1590
11326935.000000;146.1590
11332862.000000;146.1590
11338909.000000;146.1590
11344923.000000;146.1590
11351044.000000;146.1590
11356938.000000;146.2990
11362949.000000;146.2990
11368931.000000;146.2990
11374869.000000;146.2990
11380898.000000;146.2990
11386786.000000;146.2990
11392775.000000;146.2990
11398630.000000;146.2990
11404649.000000;146.2990
11410708.000000;146.2990
11416623.000000;146.2990
11422678.000000;146.2990
11428751.000000;146.2990
11434820.000000;146.2990
11441122.000000;146.2990
11446996.000000;146.2990
11453129.000000;146.2990
11459001.000000;146.2990
11464904.000000;146.1620
11470764.000000;146.1620
11477179.000000;146.1620
11483039.000000;146.1620
11489137.000000;146.1620
11495019.000000;146.1620
11501076.000000;146.1620
11506895.000000;146.1620
11513186.000000;146.1620
11519114.000000;146.1620
11525209.000000;146.1620
11531136.000000;146.1620
11537056.000000;146.1620
11542917.000000;146.1620
11549362.000000;146.1620
11555301.000000;146.1620
11561236.000000;146.1620
11567122.000000;146.2840
11573105.000000;146.2840
11578981.000000;146.2840
11585069.000000;146.2840
11590922.000000;146.2840
11596940.000000;146.2840
11602827.000000;146.2840
11608722.000000;146.2840
11614579.000000;146.2840
11620993.000000;146.2840
11626863.000000;146.2840
11632898.000000;146.2840
11638799.000000;146.2840
11644873.000000;146.2840
11650761.000000;146.2840
11656826.000000;146.2840
11662876.000000;146.2840
11668817.000000;146.1660
11674686.000000;146.1660
11680625.000000;146.1660
11686659.000000;146.1660
11692820.000000;146.1660
11698666.000000;146.1660
11704677.000000;146.1660
11710596.000000;146.1660
11716632.000000;146.1660
11722535.000000;146.1660
11728592.000000;146.1660
11734708.000000;146.1660
11740623.000000;146.1660
11746564.000000;146.1660
11752485.000000;146.1660
11758318.000000;146.1660
11764515.000000;146.1660
11770570.000000;146.3090
11776448.000000;146.3090
11782407.000000;146.3090
11788383.000000;146.3090
11794203.000000;146.3090
11800194.000000;146.3090
11806238.000000;146.3090
11812050.000000;146.3090
11818047.000000;146.3090
11823908.000000;146.3090
11829784.000000;146.3090
11836045.000000;146.3090
11841996.000000;146.3090
11847992.000000;146.3090
11853902.000000;146.3090
11859985.000000;146.3090
11865880.000000;146.3090
11871865.000000;146.3090
11877971.000000;146.3760
11883896.000000;146.3760
11889841.000000;146.3760
11895838.000000;146.3760
11901695.000000;146.3760
11907544.000000;146.3760
11913521.000000;146.3760
11919447.000000;146.3760
11925685.000000;146.3760
11931567.000000;146.3760
11937605.000000;146.3760
11943445.000000;146.3760
11949492.000000;146.3760
11955379.000000;146.3760
11961725.000000;146.3760
11967776.000000;146.3760
11973733.000000;146.3760
11979737.000000;146.4010
11985807.000000;146.4010
11991749.000000;146.4010
11997927.000000;146.4010
12003810.000000;146.4010
12009755.000000;146.4010
12015594.000000;146.4010
12021699.000000;146.4010
12027526.000000;146.4010
12033657.000000;146.4010
12039518.000000;146.4010
12045399.000000;146.4010
12051245.000000;146.4010
12057292.000000;146.4010
12063219.000000;146.4010
12069422.000000;146.4010
12075274.000000;146.4010
12081340.000000;146.3640
12087227.000000;146.3640
12093284.000000;146.3640
12099166.000000;146.3640
12105320.000000;146.3640
12111182.000000;146.3640
12117050.000000;146.3640
12122877.000000;146.3640
12128998.000000;146.3640
12134829.000000;146.3640
12141139.000000;146.3640
12147018.000000;146.3640
12153017.000000;146.3640
12158845.000000;146.3640
12165003.000000;146.3640
12170863.000000;146.3640
12176934.000000;146.3640
12182780.000000;146.3990
12188627.000000;146.3990
12194512.000000;146.3990
12200483.000000;146.3990
12206869.000000;146.3990
12212828.000000;146.3990
12218690.000000;146.3990
12224605.000000;146.3990
12230642.000000;146.3990
12237024.000000;146.3990
12242987.000000;146.3990
12249123.000000;146.3990
12255048.000000;146.3990
12261145.000000;146.3990
12267083.000000;146.3990
12272891.000000;146.3990
12278721.000000;146.3990
12284841.000000;146.3990
12290740.000000;146.3800
12296895.000000;146.3800
12302793.000000;146.3800
12309155.000000;146.3800
12315042.000000;146.3800
12321107.000000;146.3800
12326994.000000;146.3800
12333011.000000;146.3800
12338904.000000;146.3800
12344767.000000;146.3800
12350667.000000;146.3800
12356782.000000;146.3800
12362705.000000;146.3800
12368805.000000;146.3800
12374686.000000;146.3800
12380935.000000;146.3800
12386790.000000;146.3800
12392869.000000;146.3390
12398718.000000;146.3390
12404754.000000;146.3390
12410671.000000;146.3390
12416567.000000;146.3390
12422556.000000;146.3390
12428650.000000;146.3390
12434554.000000;146.3390
12440670.000000;146.3390
12446593.000000;146.3390
12452701.000000;146.3390
12458621.000000;146.3390
12464556.000000;146.3390
12470491.000000;146.3390
12476442.000000;146.3390
12482530.000000;146.3390
12488441.000000;146.3390
12495356.000000;146.4440
12501293.000000;146.4440
12507400.000000;146.4440
12513402.000000;146.4440
12519450.000000;146.4440
12525365.000000;146.4440
12531421.000000;146.4440
12537419.000000;146.4440
12543343.000000;146.4440
12549182.000000;146.4440
12555076.000000;146.4440
12560941.000000;146.4440
12567311.000000;146.4440
12573289.000000;146.4440
12579243.000000;146.4440
12585333.000000;146.4440
12591285.000000;146.4440
12597120.000000;146.2760
12603193.000000;146.2760
12609216.000000;146.2760
12615105.000000;146.2760
12621022.000000;146.2760
12626933.000000;146.2760
12632870.000000;146.2760
12639084.000000;146.2760
12644974.000000;146.2760
12650923.000000;146.2760
12656846.000000;146.2760
12662917.000000;146.2760
12668877.000000;146.2760
12674859.000000;146.2760
12680972.000000;146.2760
12686880.000000;146.2760
12692829.000000;146.2760
12698715.000000;146.2940
12704726.000000;146.2940
12710867.000000;146.2940
12716848.000000;146.2940
12723050.000000;146.2940
12729247.000000;146.2940
12735237.000000;146.2940
12741355.000000;146.2940
12747305.000000;146.2940
12753558.000000;146.2940
12759613.000000;146.2940
12765453.000000;146.2940
12771602.000000;146.2940
12777518.000000;146.2940
12783859.000000;146.2940
12789679.000000;146.2940
12795686.000000;146.2940
12801476.000000;146.1350
12807478.000000;146.1350
12813352.000000;146.1350
12819399.000000;146.1350
12825396.000000;146.1350
12831260.000000;146.1350
12837117.000000;146.1350
12842997.000000;146.1350
12848868.000000;146.1350
12855210.000000;146.1350
12861006.000000;146.1350
12867139.000000;146.1350
12872913.000000;146.1350
12878929.000000;146.1350
12884847.000000;146.1350
12891106.000000;146.1350
12896992.000000;146.1350
12902990.000000;146.1350
12908876.000000;146.1100
12924979.000000;146.1100
12930812.000000;146.1100
12936908.000000;146.1100
12942816.000000;146.1100
12948868.000000;146.1100
12954881.000000;146.1100
12960800.000000;146.1100
12966805.000000;146.1100
12972705.000000;146.1100
12978669.000000;146.1100
12984628.000000;146.1100
12990482.000000;146.1100
12996569.000000;146.1100
13002456.000000;146.1100
13008561.000000;146.0620
13014403.000000;146.0620
13020496.000000;146.0620
13026534.000000;146.0620
13032532.000000;146.0620
13038677.000000;146.0620
13044572.000000;146.0620
13050651.000000;146.0620
13056612.000000;146.0620
13062833.000000;146.0620
13068766.000000;146.0620
13074862.000000;146.0620
13080761.000000;146.0620
13086907.000000;146.0620
13092830.000000;146.0620
13099086.000000;146.0620
13105007.000000;146.0620
13111011.000000;146.0160
13116929.000000;146.0160
13122943.000000;146.0160
13136959.000000;146.0160
13142953.000000;146.0160
13149296.000000;146.0160
13155182.000000;146.0160
13161191.000000;146.0160
13167091.000000;146.0160
13173127.000000;146.0160
13179040.000000;146.0160
13185123.000000;146.0160
13190993.000000;146.0160
13196864.000000;146.0160
13202777.000000;146.0160
13208748.000000;146.0160
13214657.000000;146.1510
13220929.000000;146.1510
13226811.000000;146.1510
13233042.000000;146.1510
13239016.000000;146.1510
13244975.000000;146.1510
13250915.000000;146.1510
13256921.000000;146.1510
13263026.000000;146.1510
13268950.000000;146.1510
13274883.000000;146.1510
13280863.000000;146.1510
13286764.000000;146.1510
13292904.000000;146.1510
13298963.000000;146.1510
13305520.000000;146.1510
13311642.000000;146.1510
13317545.000000;145.8960
13323619.000000;145.8960
13329594.000000;145.8960
13335714.000000;145.8960
13341560.000000;145.8960
13347571.000000;145.8960
13353423.000000;145.8960
13359569.000000;145.8960
13365431.000000;145.8960
13371683.000000;145.8960
13377629.000000;145.8960
13383522.000000;145.8960
13389387.000000;145.8960
13395403.000000;145.8960
13401349.000000;145.8960
13407350.000000;145.8960
13413207.000000;145.8960
13419063.000000;145.8960
13425863.000000;145.9990
13432866.000000;145.9990
13439813.000000;145.9990
13446604.000000;145.9990
13456807.000000;145.9990
13463630.000000;145.9990
13471333.000000;145.9990
13478056.000000;145.9990
13483716.000000;145.9990
13490910.000000;145.9990
13496569.000000;145.9990
13503132.000000;145.9990
13509987.000000;145.9990
13515685.000000;145.9990
13521357.000000;145.9990
13526963.000000;136.4030
13532800.000000;136.4030
13538458.000000;136.4030
13545347.000000;136.4030
13552417.000000;136.4030
13558110.000000;136.4030
13565081.000000;136.4030
13570688.000000;136.4030
13576361.000000;136.4030
13581992.000000;136.4030
13588800.000000;136.4030
13594503.000000;136.4030
13600163.000000;136.4030
13605836.000000;136.4030
13611495.000000;136.4030
13617112.000000;136.4030
13622740.000000;136.4030
13629579.000000;126.2210
13635336.000000;126.2210
13641053.000000;126.2210
13646674.000000;126.2210
13652352.000000;126.2210
13658023.000000;126.2210
13663656.000000;126.2210
13669259.000000;126.2210
13676167.000000;126.2210
13683048.000000;126.2210
13688691.000000;126.2210
13694317.000000;126.2210
13699936.000000;126.2210
13705572.000000;126.2210
13711233.000000;126.2210
13718217.000000;126.2210
13724582.000000;126.2210
13730283.000000;115.9610
13735960.000000;115.9610
13744970.000000;115.9610
13750580.000000;115.9610
13756261.000000;115.9610
13761897.000000;115.9610
13767581.000000;115.9610
13773201.000000;115.9610
13780010.000000;115.9610
13785692.000000;115.9610
13791346.000000;115.9610
13796985.000000;115.9610
13802597.000000;115.9610
13808249.000000;115.9610
13813872.000000;115.9610
13820781.000000;115.9610
13826426.000000;115.9610
13832156.000000;105.7940
13837804.000000;105.7940
13843430.000000;105.7940
13849017.000000;105.7940
13855041.000000;105.7940
13861963.000000;105.7940
13867551.000000;105.7940
13873217.000000;105.7940
13878883.000000;105.7940
13884568.000000;105.7940
13890216.000000;105.7940
13895856.000000;105.7940
13901502.000000;105.7940
13907174.000000;105.7940
13912806.000000;105.7940
13918417.000000;105.7940
13924063.000000;105.7940
13929699.000000;105.7940
13935332.000000;95.6470
13942143.000000;95.6470
13948106.000000;95.6470
13953778.000000;95.6470
13959452.000000;95.6470
13965069.000000;95.6470
13970707.000000;95.6470
13976373.000000;95.6470
13983408.000000;95.6470
13989045.000000;95.6470
13997420.000000;95.6470
14003116.000000;95.6470
14008832.000000;95.6470
14014553.000000;95.6470
14021430.000000;95.6470
14028236.000000;95.6470
14057366.000000;85.4410