sep=;
Timestamp [us];Power measure [W]
214.000000;43.4150
5927.000000;43.4150
11770.000000;43.4150
30132.000000;43.4570
35444.000000;43.4570
40921.000000;43.4570
48190.000000;43.4570
65071.000000;43.4570
70269.000000;43.4570
75554.000000;43.4570
81097.000000;43.4570
86401.000000;43.4570
91701.000000;43.4570
96992.000000;43.4570
102331.000000;43.4570
110524.000000;43.4570
115812.000000;43.4570
121039.000000;43.4570
126437.000000;43.4570
131645.000000;43.6350
136852.000000;43.6350
142303.000000;43.6350
147808.000000;43.6350
154054.000000;43.6350
159254.000000;43.6350
164611.000000;43.6350
169800.000000;43.6350
174980.000000;43.6350
180156.000000;43.6350
185334.000000;43.6350
190509.000000;43.6350
195750.000000;43.6350
200913.000000;43.6350
206095.000000;43.6350
211326.000000;43.6350
216513.000000;43.6350
221717.000000;43.6350
226902.000000;43.6350
232120.000000;43.6350
237330.000000;43.6850
242507.000000;43.6850
248038.000000;43.6850
253248.000000;43.6850
258432.000000;43.6850
263629.000000;43.6850
268854.000000;43.6850
274096.000000;43.6850
279286.000000;43.6850
284474.000000;43.6850
289899.000000;43.6850
295401.000000;43.6850
300613.000000;43.6850
305818.000000;43.6850
311036.000000;43.6850
316229.000000;43.6850
321405.000000;43.6850
326640.000000;43.6850
332035.000000;43.6850
337414.000000;43.6850
342618.000000;43.6980
347781.000000;43.6980
352983.000000;43.6980
358183.000000;43.6980
363390.000000;43.6980
368573.000000;43.6980
373955.000000;43.6980
379163.000000;43.6980
384354.000000;43.6980
389531.000000;43.6980
394710.000000;43.6980
399997.000000;43.6980
405281.000000;43.6980
410585.000000;43.6980
416060.000000;43.6980
421540.000000;43.6980
427023.000000;43.6980
432407.000000;43.6980
437662.000000;43.6980
443095.000000;43.7070
448688.000000;43.7070
454108.000000;43.7070
459505.000000;43.7070
464825.000000;43.7070
470249.000000;43.7070
475463.000000;43.7070
480681.000000;43.7070
485903.000000;43.7070
491129.000000;43.7070
496431.000000;43.7070
501662.000000;43.7070
506937.000000;43.7070
512180.000000;43.7070
517464.000000;43.7070
522714.000000;43.7070
528030.000000;43.7070
533379.000000;43.7070
538974.000000;43.7070
544206.000000;51.1800
549483.000000;51.1800
554705.000000;51.1800
559965.000000;51.1800
565247.000000;51.1800
570623.000000;51.1800
575848.000000;51.1800
581095.000000;51.1800
586320.000000;51.1800
591542.000000;51.1800
596981.000000;51.1800
602207.000000;51.1800
607433.000000;51.1800
612651.000000;51.1800
617876.000000;51.1800
623119.000000;51.1800
628424.000000;51.1800
633880.000000;51.1800
639194.000000;51.1800
644400.000000;51.1800
649621.000000;61.4010
655016.000000;61.4010
660337.000000;61.4010
667984.000000;61.4010
673206.000000;61.4010
678649.000000;61.4010
683872.000000;61.4010
689099.000000;61.4010
694380.000000;61.4010
699768.000000;61.4010
705023.000000;61.4010
710246.000000;61.4010
715465.000000;61.4010
720714.000000;61.4010
725916.000000;61.4010
731283.000000;61.4010
736525.000000;61.4010
741792.000000;61.4010
747198.000000;61.4010
752434.000000;71.0650
757665.000000;71.0650
762895.000000;71.0650
768282.000000;71.0650
773506.000000;71.0650
778740.000000;71.0650
784043.000000;71.0650
789346.000000;71.0650
794559.000000;71.0650
799860.000000;71.0650
805107.000000;71.0650
810467.000000;71.0650
815678.000000;71.0650
820892.000000;71.0650
826191.000000;71.0650
831438.000000;71.0650
836700.000000;71.0650
841963.000000;71.0650
847344.000000;71.0650
852578.000000;71.0650
857837.000000;81.3720
863081.000000;81.3720
868351.000000;81.3720
874970.000000;81.3720
880192.000000;81.3720
885646.000000;81.3720
890878.000000;81.3720
896091.000000;81.3720
901351.000000;81.3720
906621.000000;81.3720
911870.000000;81.3720
917163.000000;81.3720
922385.000000;81.3720
927612.000000;81.3720
932833.000000;81.3720
938273.000000;81.3720
943553.000000;81.3720
948805.000000;81.3720
954029.000000;81.3720
959257.000000;91.6600
964549.000000;91.6600
969785.000000;91.6600
975013.000000;91.6600
980260.000000;91.6600
985692.000000;91.6600
990924.000000;91.6600
996214.000000;91.6600
1001472.000000;91.6600
1006809.000000;91.6600
1012026.000000;91.6600
1017263.000000;91.6600
1022529.000000;91.6600
1027772.000000;91.6600
1033086.000000;91.6600
1038448.000000;91.6600
1043697.000000;91.6600
1048920.000000;91.6600
1054152.000000;91.6600
1059398.000000;91.6600
1064760.000000;101.9280
1069994.000000;101.9280
1075232.000000;101.9280
1080456.000000;101.9280
1085675.000000;101.9280
1090933.000000;101.9280
1096211.000000;101.9280
1101462.000000;101.9280
1106709.000000;101.9280
1111940.000000;101.9280
1117126.000000;101.9280
1122507.000000;101.9280
1127734.000000;101.9280
1132971.000000;101.9280
1138258.000000;101.9280
1143485.000000;101.9280
1148823.000000;101.9280
1154054.000000;101.9280
1159326.000000;101.9280
1164590.000000;101.9280
1169840.000000;112.1070
1175112.000000;112.1070
1180344.000000;112.1070
1185642.000000;112.1070
1190872.000000;112.1070
1196145.000000;112.1070
1201581.000000;112.1070
1206840.000000;112.1070
1212094.000000;112.1070
1217347.000000;112.1070
1222632.000000;112.1070
1228010.000000;112.1070
1233243.000000;112.1070
1238470.000000;112.1070
1243704.000000;112.1070
1249214.000000;112.1070
1254466.000000;112.1070
1259698.000000;112.1070
1264926.000000;112.1070
1270176.000000;122.5250
1275411.000000;122.5250
1280767.000000;122.5250
1285998.000000;122.5250
1291605.000000;122.5250
1296839.000000;122.5250
1302149.000000;122.5250
1307394.000000;122.5250
1312631.000000;122.5250
1317866.000000;122.5250
1323091.000000;122.5250
1328335.000000;122.5250
1333548.000000;122.5250
1338767.000000;122.5250
1344034.000000;122.5250
1349257.000000;122.5250
1354661.000000;122.5250
1359931.000000;122.5250
1365155.000000;122.5250
1370352.000000;122.5250
1375582.000000;132.7960
1380912.000000;132.7960
1386144.000000;132.7960
1391386.000000;132.7960
1396620.000000;132.7960
1401865.000000;132.7960
1407096.000000;132.7960
1412621.000000;132.7960
1417874.000000;132.7960
1423469.000000;132.7960
1428889.000000;132.7960
1434152.000000;132.7960
1439414.000000;132.7960
1445123.000000;132.7960
1450380.000000;132.7960
1455970.000000;132.7960
1461239.000000;132.7960
1466561.000000;132.7960
1471810.000000;132.7960
1477070.000000;143.1610
1482303.000000;143.1610
1487574.000000;143.1610
1493026.000000;143.1610
1498251.000000;143.1610
1503575.000000;143.1610
1508833.000000;143.1610
1514304.000000;143.1610
1519578.000000;143.1610
1524838.000000;143.1610
1530077.000000;143.1610
1535387.000000;143.1610
1540635.000000;143.1610
1545872.000000;143.1610
1551110.000000;143.1610
1556332.000000;143.1610
1561605.000000;143.1610
1567006.000000;143.1610
1572232.000000;143.1610
1577462.000000;143.1610
1582691.000000;146.0920
1587976.000000;146.0920
1593483.000000;146.0920
1598711.000000;146.0920
1603947.000000;146.0920
1609217.000000;146.0920
1614447.000000;146.0920
1619722.000000;146.0920
1624938.000000;146.0920
1630120.000000;146.0920
1635369.000000;146.0920
1640646.000000;146.0920
1646037.000000;146.0920
1651322.000000;146.0920
1656555.000000;146.0920
1661803.000000;146.0920
1667203.000000;146.0920
1672449.000000;146.0920
1677711.000000;146.0920
1682937.000000;146.1940
1688391.000000;146.1940
1693673.000000;146.1940
1698932.000000;146.1940
1704179.000000;146.1940
1709559.000000;146.1940
1714796.000000;146.1940
1720059.000000;146.1940
1725355.000000;146.1940
1730971.000000;146.1940
1736208.000000;146.1940
1741482.000000;146.1940
1746722.000000;146.1940
1752129.000000;146.1940
1757374.000000;146.1940
1762601.000000;146.1940
1767844.000000;146.1940
1773288.000000;146.1940
1778562.000000;146.1940
1783777.000000;146.1940
1789177.000000;146.7010
1794403.000000;146.7010
1799661.000000;146.7010
1804905.000000;146.7010
1810230.000000;146.7010
1815467.000000;146.7010
1820709.000000;146.7010
1825951.000000;146.7010
1831526.000000;146.7010
1836784.000000;146.7010
1842020.000000;146.7010
1847252.000000;146.7010
1852760.000000;146.7010
1858024.000000;146.7010
1863326.000000;146.7010
1868579.000000;146.7010
1873849.000000;146.7010
1879241.000000;146.7010
1884517.000000;146.7010
1889722.000000;146.8100
1895014.000000;146.8100
1900208.000000;146.8100
1905504.000000;146.8100
1910690.000000;146.8100
1915978.000000;146.8100
1921204.000000;146.8100
1926732.000000;146.8100
1931984.000000;146.8100
1937247.000000;146.8100
1942461.000000;146.8100
1947707.000000;146.8100
1953183.000000;146.8100
1958426.000000;146.8100
1963712.000000;146.8100
1968967.000000;146.8100
1974311.000000;146.8100
1979587.000000;146.8100
1984827.000000;146.8100
1990110.000000;146.8100
1995399.000000;146.8490
2000809.000000;146.8490
2006079.000000;146.8490
2011700.000000;146.8490
2017321.000000;146.8490
2022714.000000;146.8490
2027961.000000;146.8490
2033235.000000;146.8490
2038469.000000;146.8490
2043917.000000;146.8490
2049167.000000;146.8490
2054392.000000;146.8490
2059625.000000;146.8490
2064861.000000;146.8490
2070190.000000;146.8490
2075455.000000;146.8490
2081104.000000;146.8490
2086399.000000;146.8490
2091884.000000;146.8490
2097126.000000;146.9770
2102362.000000;146.9770
2107608.000000;146.9770
2113141.000000;146.9770
2118420.000000;146.9770
2123732.000000;146.9770
2129045.000000;146.9770
2134603.000000;146.9770
2139844.000000;146.9770
2145104.000000;146.9770
2150399.000000;146.9770
2155701.000000;146.9770
2161322.000000;146.9770
2166549.000000;146.9770
2171792.000000;146.9770
2177088.000000;146.9770
2182435.000000;146.9770
2187674.000000;146.9770
2192914.000000;146.9770
2198149.000000;147.0130
2203379.000000;147.0130
2208704.000000;147.0130
2213961.000000;147.0130
2219334.000000;147.0130
2224588.000000;147.0130
2229833.000000;147.0130
2235321.000000;147.0130
2240560.000000;147.0130
2245831.000000;147.0130
2251125.000000;147.0130
2256614.000000;147.0130
2261857.000000;147.0130
2267120.000000;147.0130
2272358.000000;147.0130
2277868.000000;147.0130
2283176.000000;147.0130
2288417.000000;147.0130
2293825.000000;147.0130
2299069.000000;147.0130
2304353.000000;146.9660
2309615.000000;146.9660
2314817.000000;146.9660
2320042.000000;146.9660
2325322.000000;146.9660
2330674.000000;146.9660
2335911.000000;146.9660
2341131.000000;146.9660
2346349.000000;146.9660
2351586.000000;146.9660
2356895.000000;146.9660
2362180.000000;146.9660
2367473.000000;146.9660
2372934.000000;146.9660
2378288.000000;146.9660
2383527.000000;146.9660
2388839.000000;146.9660
2394056.000000;146.9660
2399273.000000;146.9660
2404554.000000;147.0360
2409862.000000;147.0360
2415138.000000;147.0360
2420383.000000;147.0360
2425660.000000;147.0360
2431133.000000;147.0360
2436386.000000;147.0360
2441644.000000;147.0360
2446871.000000;147.0360
2452276.000000;147.0360
2457560.000000;147.0360
2462858.000000;147.0360
2468270.000000;147.0360
2473506.000000;147.0360
2478747.000000;147.0360
2483983.000000;147.0360
2489412.000000;147.0360
2494654.000000;147.0360
2499887.000000;147.0360
2505129.000000;147.0360
2510444.000000;146.8470
2515735.000000;146.8470
2521019.000000;146.8470
2526264.000000;146.8470
2531481.000000;146.8470
2536710.000000;146.8470
2542170.000000;146.8470
2547437.000000;146.8470
2553101.000000;146.8470
2558346.000000;146.8470
2563965.000000;146.8470
2569212.000000;146.8470
2574488.000000;146.8470
2579818.000000;146.8470
2585446.000000;146.8470
2590695.000000;146.8470
2595979.000000;146.8470
2601226.000000;146.8470
2606414.000000;146.8470
2611679.000000;146.9660
2616906.000000;146.9660
2622171.000000;146.9660
2627407.000000;146.9660
2632904.000000;146.9660
2638152.000000;146.9660
2643434.000000;146.9660
2648677.000000;146.9660
2654133.000000;146.9660
2659431.000000;146.9660
2664682.000000;146.9660
2669933.000000;146.9660
2675179.000000;146.9660
2680883.000000;146.9660
2686181.000000;146.9660
2691479.000000;146.9660
2696726.000000;146.9660
2702144.000000;146.9660
2707377.000000;146.9660
2712666.000000;146.9660
2717939.000000;146.9630
2723436.000000;146.9630
2728721.000000;146.9630
2733931.000000;146.9630
2739256.000000;146.9630
2744562.000000;146.9630
2749803.000000;146.9630
2755126.000000;146.9630
2760462.000000;146.9630
2765700.000000;146.9630
2770944.000000;146.9630
2776241.000000;146.9630
2781631.000000;146.9630
2786874.000000;146.9630
2792113.000000;146.9630
2797393.000000;146.9630
2802691.000000;146.9630
2808020.000000;146.9630
2813270.000000;146.9630
2818507.000000;147.0150
2823739.000000;147.0150
2829039.000000;147.0150
2834313.000000;147.0150
2839672.000000;147.0150
2844882.000000;147.0150
2850174.000000;147.0150
2855473.000000;147.0150
2861007.000000;147.0150
2866251.000000;147.0150
2871492.000000;147.0150
2876771.000000;147.0150
2882111.000000;147.0150
2887390.000000;147.0150
2892646.000000;147.0150
2897912.000000;147.0150
2903249.000000;147.0150
2908522.000000;147.0150
2913924.000000;147.0150
2919167.000000;147.0150
2924414.000000;147.0060
2929729.000000;147.0060
2935192.000000;147.0060
2940425.000000;147.0060
2945702.000000;147.0060
2950978.000000;147.0060
2956304.000000;147.0060
2961555.000000;147.0060
2966838.000000;147.0060
2972228.000000;147.0060
2977445.000000;147.0060
2982722.000000;147.0060
2988127.000000;147.0060
2993372.000000;147.0060
2999000.000000;147.0060
3004502.000000;147.0060
3009779.000000;147.0060
3015055.000000;147.0060
3020334.000000;147.0060
3025778.000000;147.0180
3031020.000000;147.0180
3036265.000000;147.0180
3041525.000000;147.0180
3047119.000000;147.0180
3052375.000000;147.0180
3057608.000000;147.0180
3062860.000000;147.0180
3068119.000000;147.0180
3073439.000000;147.0180
3078790.000000;147.0180
3084069.000000;147.0180
3089338.000000;147.0180
3094559.000000;147.0180
3099869.000000;147.0180
3105127.000000;147.0180
3110397.000000;147.0180
3115661.000000;147.0180
3120909.000000;147.0180
3126213.000000;147.0180
3131423.000000;146.8460
3136644.000000;146.8460
3141898.000000;146.8460
3147148.000000;146.8460
3152475.000000;146.8460
3157721.000000;146.8460
3162994.000000;146.8460
3168237.000000;146.8460
3173486.000000;146.8460
3178915.000000;146.8460
3184172.000000;146.8460
3189419.000000;146.8460
3194666.000000;146.8460
3199990.000000;146.8460
3205254.000000;146.8460
3210526.000000;146.8460
3215790.000000;146.8460
3221086.000000;146.8460
3226433.000000;146.8460
3231712.000000;146.8620
3236979.000000;146.8620
3242228.000000;146.8620
3247494.000000;146.8620
3252906.000000;146.8620
3258154.000000;146.8620
3263485.000000;146.8620
3268789.000000;146.8620
3274083.000000;146.8620
3279344.000000;146.8620
3284639.000000;146.8620
3289883.000000;146.8620
3295131.000000;146.8620
3300381.000000;146.8620
3305775.000000;146.8620
3311043.000000;146.8620
3316288.000000;146.8620
3321567.000000;146.8620
3327027.000000;146.8620
3332305.000000;146.8620
3337568.000000;146.7270
3342853.000000;146.7270
3348482.000000;146.7270
3353846.000000;146.7270
3359129.000000;146.7270
3364379.000000;146.7270
3369701.000000;146.7270
3374948.000000;146.7270
3380174.000000;146.7270
3385461.000000;146.7270
3390705.000000;146.7270
3396178.000000;146.7270
3401446.000000;146.7270
3406694.000000;146.7270
3411973.000000;146.7270
3417237.000000;146.7270
3422508.000000;146.7270
3427789.000000;146.7270
3433082.000000;146.7270
3438314.000000;146.7890
3443571.000000;146.7890
3449061.000000;146.7890
3454371.000000;146.7890
3459623.000000;146.7890
3464909.000000;146.7890
3470533.000000;146.7890
3475787.000000;146.7890
3481083.000000;146.7890
3486367.000000;146.7890
3491643.000000;146.7890
3496888.000000;146.7890
3502148.000000;146.7890
3507421.000000;146.7890
3512671.000000;146.7890
3518124.000000;146.7890
3523402.000000;146.7890
3528643.000000;146.7890
3533934.000000;146.7890
3539336.000000;146.7890
3544584.000000;146.8620
3549832.000000;146.8620
3555121.000000;146.8620
3560503.000000;146.8620
3565830.000000;146.8620
3571097.000000;146.8620
3576546.000000;146.8620
3581793.000000;146.8620
3587045.000000;146.8620
3592338.000000;146.8620
3597599.000000;146.8620
3602902.000000;146.8620
3608170.000000;146.8620
3613455.000000;146.8620
3618785.000000;146.8620
3624071.000000;146.8620
3629378.000000;146.8620
3634664.000000;146.8620
3640115.000000;146.8620
3645579.000000;146.7210
3650867.000000;146.7210
3656148.000000;146.7210
3661427.000000;146.7210
3666978.000000;146.7210
3672233.000000;146.7210
3677557.000000;146.7210
3682825.000000;146.7210
3688460.000000;146.7210
3693981.000000;146.7210
3699272.000000;146.7210
3704594.000000;146.7210
3709848.000000;146.7210
3715099.000000;146.7210
3720383.000000;146.7210
3725674.000000;146.7210
3730967.000000;146.7210
3736325.000000;146.7210
3741602.000000;146.7210
3746902.000000;146.7210
3752149.000000;146.7390
3757454.000000;146.7390
3762729.000000;146.7390
3768187.000000;146.7390
3773445.000000;146.7390
3778702.000000;146.7390
3783975.000000;146.7390
3789329.000000;146.7390
3794707.000000;146.7390
3799972.000000;146.7390
3805239.000000;146.7390
3810498.000000;146.7390
3815754.000000;146.7390
3821042.000000;146.7390
3826353.000000;146.7390
3831604.000000;146.7390
3836934.000000;146.7390
3842187.000000;146.7390
3847653.000000;146.7390
3852905.000000;146.7350
3858159.000000;146.7350
3863432.000000;146.7350
3868694.000000;146.7350
3873962.000000;146.7350
3879248.000000;146.7350
3884505.000000;146.7350
3889760.000000;146.7350
3895044.000000;146.7350
3900513.000000;146.7350
3905770.000000;146.7350
3911025.000000;146.7350
3916280.000000;146.7350
3921750.000000;146.7350
3927037.000000;146.7350
3932291.000000;146.7350
3937636.000000;146.7350
3942893.000000;146.7350
3948140.000000;146.7350
3953451.000000;146.7350
3958828.000000;146.7930
3964044.000000;146.7930
3969348.000000;146.7930
3974608.000000;146.7930
3980093.000000;146.7930
3985395.000000;146.7930
3990678.000000;146.7930
3995939.000000;146.7930
4001148.000000;146.7930
4006383.000000;146.7930
4011612.000000;146.7930
4016856.000000;146.7930
4022149.000000;146.7930
4027420.000000;146.7930
4032690.000000;146.7930
4037945.000000;146.7930
4043310.000000;146.7930
4048563.000000;146.7930
4053815.000000;146.7930
4059103.000000;146.8960
4064563.000000;146.8960
4069856.000000;146.8960
4075173.000000;146.8960
4080435.000000;146.8960
4085738.000000;146.8960
4091013.000000;146.8960
4096298.000000;146.8960
4101550.000000;146.8960
4106830.000000;146.8960
4112351.000000;146.8960
4117607.000000;146.8960
4122863.000000;146.8960
4128107.000000;146.8960
4133596.000000;146.8960
4138917.000000;146.8960
4144176.000000;146.8960
4149443.000000;146.8960
4154827.000000;146.8960
4160140.000000;146.8960
4165429.000000;147.0070
4170831.000000;147.0070
4176123.000000;147.0070
4181377.000000;147.0070
4186780.000000;147.0070
4192102.000000;147.0070
4197359.000000;147.0070
4202614.000000;147.0070
4208086.000000;147.0070
4213354.000000;147.0070
4218584.000000;147.0070
4223874.000000;147.0070
4229541.000000;147.0070
4234800.000000;147.0070
4240060.000000;147.0070
4245319.000000;147.0070
4250599.000000;147.0070
4255874.000000;147.0070
4261114.000000;147.0070
4266364.000000;147.1420
4271606.000000;147.1420
4276865.000000;147.1420
4282149.000000;147.1420
4287423.000000;147.1420
4292679.000000;147.1420
4297940.000000;147.1420
4303756.000000;147.1420
4309412.000000;147.1420
4314675.000000;147.1420
4320346.000000;147.1420
4325659.000000;147.1420
4330944.000000;147.1420
4336222.000000;147.1420
4341454.000000;147.1420
4346770.000000;147.1420
4352014.000000;147.1420
4357291.000000;147.1420
4362611.000000;147.1420
4367878.000000;147.2310
4373254.000000;147.2310
4378489.000000;147.2310
4383733.000000;147.2310
4389062.000000;147.2310
4394345.000000;147.2310
4399625.000000;147.2310
4404821.000000;147.2310
4410143.000000;147.2310
4415405.000000;147.2310
4420902.000000;147.2310
4426167.000000;147.2310
4431461.000000;147.2310
4436752.000000;147.2310
4442075.000000;147.2310
4447314.000000;147.2310
4452605.000000;147.2310
4457864.000000;147.2310
4463194.000000;147.2310
4468471.000000;147.2310
4473748.000000;147.3000
4479025.000000;147.3000
4484286.000000;147.3000
4489539.000000;147.3000
4495007.000000;147.3000
4500266.000000;147.3000
4505527.000000;147.3000
4510818.000000;147.3000
4516357.000000;147.3000
4521700.000000;147.3000
4526949.000000;147.3000
4532204.000000;147.3000
4537524.000000;147.3000
4542812.000000;147.3000
4548070.000000;147.3000
4553325.000000;147.3000
4558653.000000;147.3000
4563899.000000;147.3000
4569209.000000;147.3000
4574472.000000;147.5130
4579764.000000;147.5130
4585072.000000;147.5130
4590505.000000;147.5130
4595768.000000;147.5130
4601079.000000;147.5130
4606337.000000;147.5130
4611620.000000;147.5130
4616921.000000;147.5130
4622242.000000;147.5130
4627504.000000;147.5130
4632759.000000;147.5130
4638245.000000;147.5130
4643506.000000;147.5130
4648769.000000;147.5130
4654031.000000;147.5130
4659407.000000;147.5130
4664660.000000;147.5130
4669927.000000;147.5130
4675206.000000;147.5130
4680522.000000;147.5710
4685786.000000;147.5710
4691035.000000;147.5710
4696324.000000;147.5710
4702211.000000;147.5710
4707666.000000;147.5710
4712926.000000;147.5710
4718194.000000;147.5710
4723496.000000;147.5710
4729033.000000;147.5710
4734320.000000;147.5710
4739588.000000;147.5710
4744855.000000;147.5710
4750214.000000;147.5710
4756139.000000;147.5710
4761375.000000;147.5710
4766735.000000;147.5710
4772034.000000;147.5710
4777393.000000;147.5710
4782666.000000;147.8050
4787932.000000;147.8050
4793224.000000;147.8050
4798546.000000;147.8050
4803791.000000;147.8050
4809108.000000;147.8050
4814317.000000;147.8050
4819727.000000;147.8050
4825043.000000;147.8050
4830290.000000;147.8050
4835590.000000;147.8050
4841103.000000;147.8050
4846397.000000;147.8050
4851672.000000;147.8050
4857027.000000;147.8050
4862294.000000;147.8050
4867770.000000;147.8050
4873089.000000;147.8050
4878349.000000;147.8050
4883631.000000;147.8050
4888947.000000;147.7650
4894255.000000;147.7650
4899516.000000;147.7650
4904785.000000;147.7650
4910097.000000;147.7650
4915535.000000;147.7650
4920797.000000;147.7650
4926079.000000;147.7650
4931357.000000;147.7650
4936662.000000;147.7650
4942125.000000;147.7650
4947446.000000;147.7650
4952709.000000;147.7650
4958000.000000;147.7650
4963457.000000;147.7650
4968728.000000;147.7650
4973993.000000;147.7650
4979258.000000;147.7650
4984695.000000;147.7650
4990036.000000;147.7880
4995419.000000;147.7880
5000754.000000;147.7880
5006036.000000;147.7880
5011549.000000;147.7880
5016840.000000;147.7880
5022128.000000;147.7880
5027360.000000;147.7880
5032860.000000;147.7880
5038138.000000;147.7880
5043409.000000;147.7880
5048676.000000;147.7880
5054174.000000;147.7880
5059441.000000;147.7880
5064704.000000;147.7880
5070014.000000;147.7880
5075577.000000;147.7880
5080904.000000;147.7880
5086216.000000;147.7880
5091481.000000;147.9310
5096744.000000;147.9310
5102073.000000;147.9310
5107336.000000;147.9310
5112602.000000;147.9310
5117866.000000;147.9310
5123356.000000;147.9310
5128705.000000;147.9310
5133975.000000;147.9310
5139294.000000;147.9310
5144595.000000;147.9310
5149903.000000;147.9310
5155179.000000;147.9310
5160447.000000;147.9310
5165719.000000;147.9310
5171002.000000;147.9310
5176317.000000;147.9310
5181589.000000;147.9310
5186900.000000;147.9310
5192170.000000;147.9310
5197600.000000;148.0170
5202895.000000;148.0170
5208186.000000;148.0170
5213450.000000;148.0170
5219192.000000;148.0170
5224516.000000;148.0170
5229827.000000;148.0170
5235127.000000;148.0170
5240571.000000;148.0170
5245870.000000;148.0170
5251137.000000;148.0170
5256392.000000;148.0170
5261917.000000;148.0170
5267208.000000;148.0170
5272471.000000;148.0170
5277769.000000;148.0170
5283054.000000;148.0170
5288300.000000;148.0170
5293612.000000;148.0170
5298931.000000;148.1210
5304197.000000;148.1210
5309476.000000;148.1210
5314790.000000;148.1210
5320053.000000;148.1210
5325348.000000;148.1210
5330616.000000;148.1210
5336062.000000;148.1210
5341326.000000;148.1210
5346652.000000;148.1210
5351934.000000;148.1210
5357381.000000;148.1210
5362682.000000;148.1210
5367973.000000;148.1210
5373297.000000;148.1210
5378569.000000;148.1210
5383830.000000;148.1210
5389152.000000;148.1210
5394424.000000;148.1210
5399658.000000;148.1210
5404925.000000;148.2780
5410473.000000;148.2780
5415745.000000;148.2780
5421078.000000;148.2780
5426347.000000;148.2780
5431782.000000;148.2780
5437095.000000;148.2780
5442366.000000;148.2780
5447675.000000;148.2780
5453000.000000;148.2780
5458252.000000;148.2780
5463479.000000;148.2780
5468745.000000;148.2780
5474006.000000;148.2780
5479270.000000;148.2780
5484648.000000;148.2780
5489915.000000;148.2780
5495185.000000;148.2780
5500457.000000;148.2780
5505782.000000;148.2010
5511233.000000;148.2010
5516504.000000;148.2010
5521786.000000;148.2010
5527040.000000;148.2010
5532294.000000;148.2010
5537803.000000;148.2010
5543092.000000;148.2010
5548406.000000;148.2010
5553742.000000;148.2010
5559200.000000;148.2010
5564421.000000;148.2010
5569652.000000;148.2010
5574877.000000;148.2010
5580326.000000;148.2010
5585573.000000;148.2010
5590817.000000;148.2010
5596146.000000;148.2010
5601427.000000;148.2010
5606701.000000;148.2010
5611947.000000;148.3200
5617248.000000;148.3200
5622539.000000;148.3200
5627761.000000;148.3200
5633199.000000;148.3200
5638512.000000;148.3200
5643756.000000;148.3200
5649104.000000;148.3200
5654564.000000;148.3200
5659888.000000;148.3200
5665164.000000;148.3200
5670412.000000;148.3200
5675710.000000;148.3200
5681201.000000;148.3200
5686451.000000;148.3200
5691718.000000;148.3200
5696988.000000;148.3200
5702503.000000;148.3200
5707796.000000;148.3200
5717071.000000;148.3680
5722351.000000;148.3680
5727640.000000;148.3680
5733059.000000;148.3680
5738373.000000;148.3680
5743850.000000;148.3680
5749137.000000;148.3680
5754420.000000;148.3680
5759739.000000;148.3680
5765067.000000;148.3680
5770529.000000;148.3680
5775860.000000;148.3680
5781169.000000;148.3680
5786445.000000;148.3680
5791892.000000;148.3680
5797208.000000;148.3680
5802517.000000;148.3680
5807828.000000;148.3680
5813151.000000;148.3680
5818448.000000;148.2670
5823728.000000;148.2670
5829074.000000;148.2670
5834344.000000;148.2670
5839618.000000;148.2670
5845001.000000;148.2670
5850274.000000;148.2670
5855546.000000;148.2670
5860819.000000;148.2670
5866298.000000;148.2670
5871522.000000;148.2670
5876754.000000;148.2670
5882029.000000;148.2670
5887330.000000;148.2670
5892622.000000;148.2670
5897915.000000;148.2670
5903173.000000;148.2670
5908425.000000;148.2670
5913681.000000;148.2670
5919152.000000;148.5590
5924375.000000;148.5590
5929623.000000;148.5590
5934865.000000;148.5590
5940471.000000;148.5590
5945739.000000;148.5590
5951067.000000;148.5590
5956360.000000;148.5590
5961655.000000;148.5590
5966977.000000;148.5590
5972248.000000;148.5590
5977517.000000;148.5590
5982792.000000;148.5590
5988091.000000;148.5590
5993509.000000;148.5590
5998805.000000;148.5590
6004457.000000;148.5590
6009942.000000;148.5590
6015594.000000;148.5590
6021248.000000;148.5760
6026615.000000;148.5760
6032185.000000;148.5760
6037598.000000;148.5760
6043128.000000;148.5760
6048435.000000;148.5760
6053763.000000;148.5760
6059041.000000;148.5760
6064326.000000;148.5760
6069616.000000;148.5760
6074904.000000;148.5760
6080149.000000;148.5760
6085426.000000;148.5760
6090696.000000;148.5760
6096154.000000;148.5760
6101489.000000;148.5760
6106762.000000;148.5760
6112115.000000;148.5760
6117562.000000;148.5760
6122938.000000;148.5760
6128214.000000;148.4490
6133495.000000;148.4490
6138929.000000;148.4490
6144302.000000;148.4490
6149618.000000;148.4490
6154955.000000;148.4490
6160285.000000;148.4490
6165659.000000;148.4490
6170938.000000;148.4490
6176217.000000;148.4490
6181489.000000;148.4490
6186924.000000;148.4490
6192215.000000;148.4490
6197489.000000;148.4490
6202786.000000;148.4490
6208396.000000;148.4490
6213648.000000;148.4490
6218941.000000;148.4490
6224222.000000;148.4490
6229646.000000;148.5230
6234917.000000;148.5230
6240190.000000;148.5230
6245510.000000;148.5230
6250790.000000;148.5230
6256097.000000;148.5230
6261423.000000;148.5230
6266776.000000;148.5230
6272062.000000;148.5230
6277393.000000;148.5230
6282755.000000;148.5230
6288056.000000;148.5230
6293343.000000;148.5230
6298624.000000;148.5230
6304103.000000;148.5230
6309376.000000;148.5230
6314684.000000;148.5230
6319932.000000;148.5230
6325384.000000;148.5230
6330658.000000;148.3420
6336031.000000;148.3420
6341328.000000;148.3420
6346612.000000;148.3420
6352076.000000;148.3420
6357383.000000;148.3420
6362666.000000;148.3420
6367952.000000;148.3420
6373480.000000;148.3420
6378802.000000;148.3420
6384105.000000;148.3420
6389419.000000;148.3420
6394858.000000;148.3420
6400167.000000;148.3420
6405451.000000;148.3420
6410675.000000;148.3420
6416006.000000;148.3420
6421306.000000;148.3420
6426619.000000;148.3420
6431898.000000;148.3420
6437262.000000;148.3930
6442658.000000;148.3930
6447944.000000;148.3930
6453265.000000;148.3930
6458545.000000;148.3930
6463928.000000;148.3930
6469168.000000;148.3930
6474552.000000;148.3930
6479913.000000;148.3930
6485222.000000;148.3930
6490523.000000;148.3930
6495806.000000;148.3930
6501127.000000;148.3930
6506410.000000;148.3930
6511882.000000;148.3930
6517173.000000;148.3930
6522455.000000;148.3930
6527735.000000;148.3930
6533299.000000;148.3930
6538570.000000;148.4170
6543850.000000;148.4170
6549153.000000;148.4170
6554621.000000;148.4170
6559937.000000;148.4170
6565519.000000;148.4170
6570831.000000;148.4170
6576185.000000;148.4170
6581496.000000;148.4170
6586734.000000;148.4170
6592038.000000;148.4170
6597318.000000;148.4170
6602593.000000;148.4170
6607983.000000;148.4170
6613304.000000;148.4170
6618581.000000;148.4170
6623857.000000;148.4170
6629325.000000;148.4170
6634667.000000;148.4170
6639927.000000;148.4170
6645193.000000;148.1910
6650442.000000;148.1910
6655750.000000;148.1910
6661205.000000;148.1910
6666431.000000;148.1910
6671703.000000;148.1910
6677029.000000;148.1910
6682452.000000;148.1910
6687732.000000;148.1910
6693080.000000;148.1910
6698359.000000;148.1910
6703805.000000;148.1910
6709119.000000;148.1910
6714400.000000;148.1910
6719723.000000;148.1910
6725079.000000;148.1910
6730683.000000;148.1910
6735977.000000;148.1910
6741313.000000;148.1910
6746931.000000;148.2560
6752248.000000;148.2560
6757559.000000;148.2560
6762876.000000;148.2560
6768358.000000;148.2560
6773667.000000;148.2560
6779331.000000;148.2560
6785029.000000;148.2560
6790387.000000;148.2560
6795697.000000;148.2560
6801051.000000;148.2560
6806343.000000;148.2560
6811663.000000;148.2560
6817108.000000;148.2560
6822396.000000;148.2560
6827674.000000;148.2560
6832972.000000;148.2560
6838366.000000;148.2560
6843688.000000;148.2560
6848994.000000;148.1470
6854279.000000;148.1470
6859565.000000;148.1470
6864979.000000;148.1470
6870319.000000;148.1470
6875862.000000;148.1470
6881164.000000;148.1470
6886441.000000;148.1470
6891779.000000;148.1470
6897102.000000;148.1470
6902392.000000;148.1470
6907672.000000;148.1470
6913144.000000;148.1470
6918424.000000;148.1470
6923709.000000;148.1470
6929043.000000;148.1470
6934394.000000;148.1470
6939736.000000;148.1470
6945090.000000;148.1470
6950402.000000;148.1410
6956067.000000;148.1410
6961384.000000;148.1410
6966707.000000;148.1410
6971998.000000;148.1410
6977561.000000;148.1410
6982841.000000;148.1410
6988120.000000;148.1410
6993409.000000;148.1410
6998922.000000;148.1410
7004241.000000;148.1410
7009537.000000;148.1410
7014816.000000;148.1410
7020359.000000;148.1410
7025642.000000;148.1410
7030922.000000;148.1410
7036209.000000;148.1410
7041692.000000;148.1410
7047354.000000;148.1410
7053085.000000;148.1410
7058643.000000;148.0870
7063959.000000;148.0870
7069245.000000;148.0870
7074536.000000;148.0870
7079825.000000;148.0870
7085132.000000;148.0870
7090437.000000;148.0870
7095712.000000;148.0870
7101071.000000;148.0870
7106661.000000;148.0870
7111986.000000;148.0870
7117269.000000;148.0870
7122554.000000;148.0870
7128130.000000;148.0870
7133452.000000;148.0870
7138786.000000;148.0870
7144170.000000;148.0870
7149498.000000;148.0870
7154831.000000;148.0870
7160279.000000;148.0960
7165587.000000;148.0960
7170867.000000;148.0960
7176198.000000;148.0960
7181522.000000;148.0960
7186844.000000;148.0960
7192246.000000;148.0960
7197533.000000;148.0960
7202845.000000;148.0960
7208175.000000;148.0960
7213593.000000;148.0960
7218877.000000;148.0960
7224160.000000;148.0960
7232773.000000;148.0960
7238086.000000;148.0960
7243382.000000;148.0960
7248727.000000;148.0960
7254025.000000;148.0960
7259319.000000;148.0960
7264648.000000;148.0660
7269990.000000;148.0660
7275335.000000;148.0660
7280670.000000;148.0660
7285962.000000;148.0660
7291244.000000;148.0660
7296533.000000;148.0660
7302005.000000;148.0660
7307318.000000;148.0660
7312602.000000;148.0660
7317896.000000;148.0660
7323246.000000;148.0660
7328581.000000;148.0660
7334070.000000;148.0660
7339410.000000;148.0660
7344733.000000;148.0660
7350040.000000;148.0660
7355329.000000;148.0660
7360640.000000;148.0660
7365963.000000;148.3240
7371252.000000;148.3240
7376683.000000;148.3240
7382001.000000;148.3240
7387342.000000;148.3240
7392666.000000;148.3240
7398059.000000;148.3240
7403351.000000;148.3240
7409161.000000;148.3240
7414553.000000;148.3240
7419888.000000;148.3240
7425191.000000;148.3240
7430521.000000;148.3240
7435812.000000;148.3240
7441336.000000;148.3240
7446636.000000;148.3240
7451925.000000;148.3240
7457185.000000;148.3240
7462733.000000;148.3240
7468021.000000;148.1370
7473308.000000;148.1370
7478602.000000;148.1370
7484086.000000;148.1370
7489402.000000;148.1370
7494702.000000;148.1370
7499970.000000;148.1370
7505243.000000;148.1370
7510818.000000;148.1370
7516475.000000;148.1370
7521798.000000;148.1370
7527353.000000;148.1370
7533093.000000;148.1370
7538409.000000;148.1370
7544075.000000;148.1370
7549555.000000;148.1370
7554864.000000;148.1370
7560610.000000;148.1370
7565902.000000;148.1370
7571230.000000;148.1550
7576525.000000;148.1550
7582197.000000;148.1550
7587533.000000;148.1550
7592847.000000;148.1550
7598159.000000;148.1550
7603804.000000;148.1550
7609127.000000;148.1550
7614438.000000;148.1550
7619777.000000;148.1550
7625266.000000;148.1550
7630558.000000;148.1550
7635869.000000;148.1550
7641240.000000;148.1550
7646542.000000;148.1550
7651875.000000;148.1550
7657167.000000;148.1550
7662455.000000;148.1550
7668011.000000;148.1550
7673447.000000;148.2740
7678768.000000;148.2740
7684065.000000;148.2740
7689648.000000;148.2740
7694945.000000;148.2740
7700237.000000;148.2740
7705528.000000;148.2740
7710861.000000;148.2740
7716162.000000;148.2740
7721451.000000;148.2740
7726762.000000;148.2740
7732043.000000;148.2740
7737370.000000;148.2740
7743637.000000;148.2740
7748951.000000;148.2740
7754316.000000;148.2740
7759667.000000;148.2740
7765013.000000;148.2740
7770353.000000;148.2740
7775676.000000;148.2740
7781099.000000;148.2580
7786393.000000;148.2580
7791735.000000;148.2580
7797123.000000;148.2580
7802548.000000;148.2580
7807883.000000;148.2580
7813352.000000;148.2580
7818669.000000;148.2580
7823955.000000;148.2580
7829373.000000;148.2580
7842461.000000;148.2580
7847879.000000;148.2580
7853213.000000;148.2580
7858548.000000;148.2580
7863868.000000;148.2580
7869366.000000;148.2580
7874694.000000;148.2580
7879971.000000;148.3800
7885292.000000;148.3800
7890641.000000;148.3800
7895966.000000;148.3800
7901289.000000;148.3800
7906548.000000;148.3800
7911888.000000;148.3800
7917179.000000;148.3800
7922800.000000;148.3800
7928123.000000;148.3800
7933486.000000;148.3800
7938833.000000;148.3800
7944264.000000;148.3800
7949602.000000;148.3800
7954907.000000;148.3800
7960201.000000;148.3800
7965495.000000;148.3800
7970764.000000;148.3800
7976039.000000;148.3800
7981338.000000;148.3800
7986593.000000;148.1480
7991962.000000;148.1480
7997277.000000;148.1480
8002568.000000;148.1480
8007886.000000;148.1480
8013293.000000;148.1480
8018592.000000;148.1480
8023974.000000;148.1480
8029462.000000;148.1480
8034756.000000;148.1480
8040051.000000;148.1480
8045344.000000;148.1480
8050644.000000;148.1480
8056139.000000;148.1480
8061434.000000;148.1480
8066726.000000;148.1480
8072021.000000;148.1480
8077511.000000;148.1480
8082805.000000;148.1480
8088100.000000;148.2090
8093396.000000;148.2090
8098885.000000;148.2090
8104179.000000;148.2090
8109504.000000;148.2090
8114823.000000;148.2090
8120102.000000;148.2090
8125611.000000;148.2090
8130906.000000;148.2090
8136217.000000;148.2090
8141533.000000;148.2090
8146943.000000;148.2090
8152265.000000;148.2090
8157560.000000;148.2090
8162863.000000;148.2090
8168302.000000;148.2090
8173602.000000;148.2090
8178940.000000;148.2090
8184233.000000;148.2090
8189521.000000;148.2680
8194860.000000;148.2680
8200144.000000;148.2680
8205431.000000;148.2680
8210727.000000;148.2680
8216068.000000;148.2680
8221383.000000;148.2680
8226679.000000;148.2680
8231974.000000;148.2680
8237391.000000;148.2680
8242688.000000;148.2680
8248012.000000;148.2680
8253339.000000;148.2680
8258686.000000;148.2680
8263987.000000;148.2680
8269293.000000;148.2680
8274588.000000;148.2680
8279937.000000;148.2680
8285532.000000;148.2680
8290852.000000;148.2680
8296150.000000;148.2480
8301445.000000;148.2480
8306823.000000;148.2480
8312119.000000;148.2480
8317416.000000;148.2480
8322719.000000;148.2480
8327975.000000;148.2480
8333319.000000;148.2480
8338662.000000;148.2480
8343977.000000;148.2480
8349270.000000;148.2480
8354775.000000;148.2480
8360458.000000;148.2480
8365805.000000;148.2480
8371480.000000;148.2480
8376809.000000;148.2480
8382248.000000;148.2480
8387766.000000;148.2480
8393137.000000;148.2480
8398504.000000;148.0120
8403824.000000;148.0120
8409142.000000;148.0120
8414493.000000;148.0120
8420006.000000;148.0120
8425360.000000;148.0120
8430691.000000;148.0120
8436035.000000;148.0120
8441353.000000;148.0120
8446671.000000;148.0120
8452005.000000;148.0120
8457328.000000;148.0120
8462764.000000;148.0120
8468106.000000;148.0120
8473438.000000;148.0120
8478749.000000;148.0120
8484158.000000;148.0120
8489456.000000;148.0120
8494756.000000;148.0120
8500086.000000;148.2020
8505508.000000;148.2020
8510812.000000;148.2020
8516418.000000;148.2020
8521698.000000;148.2020
8527174.000000;148.2020
8532465.000000;148.2020
8537749.000000;148.2020
8543077.000000;148.2020
8548460.000000;148.2020
8553786.000000;148.2020
8559124.000000;148.2020
8564423.000000;148.2020
8569885.000000;148.2020
8575208.000000;148.2020
8580536.000000;148.2020
8585887.000000;148.2020
8591251.000000;148.2020
8596553.000000;148.2020
8601884.000000;148.3390
8607172.000000;148.3390
8612767.000000;148.3390
8618072.000000;148.3390
8623383.000000;148.3390
8628681.000000;148.3390
8634268.000000;148.3390
8639560.000000;148.3390
8644857.000000;148.3390
8650157.000000;148.3390
8655459.000000;148.3390
8661117.000000;148.3390
8666442.000000;148.3390
8671877.000000;148.3390
8677425.000000;148.3390
8682722.000000;148.3390
8688048.000000;148.3390
8693364.000000;148.3390
8698838.000000;148.3390
8704137.000000;148.3390
8709490.000000;148.2910
8714754.000000;148.2910
8720245.000000;148.2910
8725644.000000;148.2910
8731014.000000;148.2910
8736340.000000;148.2910
8741949.000000;148.2910
8747282.000000;148.2910
8752728.000000;148.2910
8758080.000000;148.2910
8763446.000000;148.2910
8768790.000000;148.2910
8774090.000000;148.2910
8779394.000000;148.2910
8784802.000000;148.2910
8790102.000000;148.2910
8795408.000000;148.2910
8800794.000000;148.2910
8806223.000000;148.2910
8811550.000000;148.2890
8816926.000000;148.2890
8822226.000000;148.2890
8827525.000000;148.2890
8832845.000000;148.2890
8838256.000000;148.2890
8843558.000000;148.2890
8848858.000000;148.2890
8854154.000000;148.2890
8859614.000000;148.2890
8864978.000000;148.2890
8870345.000000;148.2890
8875679.000000;148.2890
8881011.000000;148.2890
8886597.000000;148.2890
8891929.000000;148.2890
8897186.000000;148.2890
8902485.000000;148.2890
8908080.000000;148.2890
8913503.000000;148.2830
8918854.000000;148.2830
8924235.000000;148.2830
8929692.000000;148.2830
8934949.000000;148.2830
8940274.000000;148.2830
8945613.000000;148.2830
8950978.000000;148.2830
8956464.000000;148.2830
8961771.000000;148.2830
8967074.000000;148.2830
8972384.000000;148.2830
8977679.000000;148.2830
8982968.000000;148.2830
8988274.000000;148.2830
8993582.000000;148.2830
8998884.000000;148.2830
9004233.000000;148.2830
9009576.000000;148.2830
9014880.000000;148.6060
9020260.000000;148.6060
9025570.000000;148.6060
9030937.000000;148.6060
9036247.000000;148.6060
9041553.000000;148.6060
9046830.000000;148.6060
9052511.000000;148.6060
9057881.000000;148.6060
9063239.000000;148.6060
9068533.000000;148.6060
9073785.000000;148.6060
9079231.000000;148.6060
9084503.000000;148.6060
9089846.000000;148.6060
9095185.000000;148.6060
9100614.000000;148.6060
9105937.000000;148.6060
9111270.000000;148.6060
9116575.000000;148.6060
9121895.000000;148.6020
9127201.000000;148.6020
9132499.000000;148.6020
9137833.000000;148.6020
9143491.000000;148.6020
9148791.000000;148.6020
9154094.000000;148.6020
9159393.000000;148.6020
9165019.000000;148.6020
9170320.000000;148.6020
9175631.000000;148.6020
9180935.000000;148.6020
9186450.000000;148.6020
9191765.000000;148.6020
9197174.000000;148.6020
9202530.000000;148.6020
9207923.000000;148.6020
9213217.000000;148.6020
9218518.000000;148.6020
9224075.000000;148.7630
9229362.000000;148.7630
9234669.000000;148.7630
9239983.000000;148.7630
9245649.000000;148.7630
9250951.000000;148.7630
9256260.000000;148.7630
9261579.000000;148.7630
9266861.000000;148.7630
9272146.000000;148.7630
9277441.000000;148.7630
9282765.000000;148.7630
9288072.000000;148.7630
9293562.000000;148.7630
9298891.000000;148.7630
9304257.000000;148.7630
9309648.000000;148.7630
9315039.000000;148.7630
9320412.000000;148.7630
9325751.000000;148.7590
9331186.000000;148.7590
9336534.000000;148.7590
9341833.000000;148.7590
9347126.000000;148.7590
9352442.000000;148.7590
9358074.000000;148.7590
9363361.000000;148.7590
9368676.000000;148.7590
9373981.000000;148.7590
9379488.000000;148.7590
9384832.000000;148.7590
9390093.000000;148.7590
9395439.000000;148.7590
9400851.000000;148.7590
9406156.000000;148.7590
9411487.000000;148.7590
9416769.000000;148.7590
9422061.000000;148.7590
9427537.000000;148.7590
9432959.000000;148.9660
9438276.000000;148.9660
9443632.000000;148.9660
9448948.000000;148.9660
9454259.000000;148.9660
9459567.000000;148.9660
9464877.000000;148.9660
9470279.000000;148.9660
9475585.000000;148.9660
9480915.000000;148.9660
9486227.000000;148.9660
9491923.000000;148.9660
9497256.000000;148.9660
9502565.000000;148.9660
9507902.000000;148.9660
9513413.000000;148.9660
9518766.000000;148.9660
9524033.000000;148.9660
9529332.000000;148.9660
9534773.000000;148.9640
9540079.000000;148.9640
9545392.000000;148.9640
9550719.000000;148.9640
9556111.000000;148.9640
9561445.000000;148.9640
9566788.000000;148.9640
9572104.000000;148.9640
9577416.000000;148.9640
9582918.000000;148.9640
9588270.000000;148.9640
9593619.000000;148.9640
9599097.000000;148.9640
9604429.000000;148.9640
9609787.000000;148.9640
9615204.000000;148.9640
9620631.000000;148.9640
9625957.000000;148.9640
9631267.000000;148.9640
9636589.000000;148.9530
9641989.000000;148.9530
9647296.000000;148.9530
9652640.000000;148.9530
9657956.000000;148.9530
9663313.000000;148.9530
9668677.000000;148.9530
9674049.000000;148.9530
9679356.000000;148.9530
9684705.000000;148.9530
9690078.000000;148.9530
9695396.000000;148.9530
9700686.000000;148.9530
9706004.000000;148.9530
9711373.000000;148.9530
9716686.000000;148.9530
9722022.000000;148.9530
9727489.000000;148.9530
9732828.000000;148.9530
9738140.000000;149.0880
9743746.000000;149.0880
9749115.000000;149.0880
9754507.000000;149.0880
9760060.000000;149.0880
9765562.000000;149.0880
9771086.000000;149.0880
9776581.000000;149.0880
9781955.000000;149.0880
9787307.000000;149.0880
9792725.000000;149.0880
9798184.000000;149.0880
9803610.000000;149.0880
9808931.000000;149.0880
9814271.000000;149.0880
9819581.000000;149.0880
9825182.000000;149.0880
9830519.000000;149.0880
9835859.000000;149.0880
9841452.000000;149.2500
9846768.000000;149.2500
9852111.000000;149.2500
9857724.000000;149.2500
9863115.000000;149.2500
9868805.000000;149.2500
9874314.000000;149.2500
9880002.000000;149.2500
9885695.000000;149.2500
9891392.000000;149.2500
9896788.000000;149.2500
9902137.000000;149.2500
9907518.000000;149.2500
9912839.000000;149.2500
9918170.000000;149.2500
9923613.000000;149.2500
9928931.000000;149.2500
9934240.000000;149.2500
9939554.000000;149.2500
9945015.000000;149.2770
9950322.000000;149.2770
9955631.000000;149.2770
9960949.000000;149.2770
9966356.000000;149.2770
9971686.000000;149.2770
9977409.000000;149.2770
9983087.000000;149.2770
9988371.000000;149.2770
9993889.000000;149.2770
9999209.000000;149.2770
10004525.000000;149.2770
10009849.000000;149.2770
10015284.000000;149.2770
10020657.000000;149.2770
10026007.000000;149.2770
10031392.000000;149.2770
10036752.000000;149.2770
10042097.000000;149.2770
10047594.000000;149.2770
10052967.000000;149.1640
10058313.000000;149.1640
10063842.000000;149.1640
10069156.000000;149.1640
10074459.000000;149.1640
10079893.000000;149.1640
10085231.000000;149.1640
10093173.000000;149.1640
10098632.000000;149.1640
10103951.000000;149.1640
10109276.000000;149.1640
10114551.000000;149.1640
10120003.000000;149.1640
10125357.000000;149.1640
10130710.000000;149.1640
10136128.000000;149.1640
10141441.000000;149.1640
10146947.000000;149.1640
10152282.000000;149.1430
10157596.000000;149.1430
10162893.000000;149.1430
10168369.000000;149.1430
10173728.000000;149.1430
10179074.000000;149.1430
10184440.000000;149.1430
10189831.000000;149.1430
10195179.000000;149.1430
10200853.000000;149.1430
10206294.000000;149.1430
10211635.000000;149.1430
10216961.000000;149.1430
10222363.000000;149.1430
10227723.000000;149.1430
10233069.000000;149.1430
10238397.000000;149.1430
10243704.000000;149.1430
10249230.000000;149.1430
10254592.000000;149.1410
10259947.000000;149.1410
10265306.000000;149.1410
10270806.000000;149.1410
10276136.000000;149.1410
10281511.000000;149.1410
10286780.000000;149.1410
10292259.000000;149.1410
10297675.000000;149.1410
10302945.000000;149.1410
10308446.000000;149.1410
10313789.000000;149.1410
10319128.000000;149.1410
10324725.000000;149.1410
10330069.000000;149.1410
10335411.000000;149.1410
10340750.000000;149.1410
10346065.000000;149.1410
10351472.000000;149.1410
10356862.000000;149.1410
10362176.000000;149.1980
10367515.000000;149.1980
10372874.000000;149.1980
10378223.000000;149.1980
10383583.000000;149.1980
10388963.000000;149.1980
10394354.000000;149.1980
10399710.000000;149.1980
10405025.000000;149.1980
10410355.000000;149.1980
10415648.000000;149.1980
10420959.000000;149.1980
10426476.000000;149.1980
10431876.000000;149.1980
10437218.000000;149.1980
10442760.000000;149.1980
10448072.000000;149.1980
10453444.000000;149.1980
10458875.000000;149.1980
10464321.000000;149.0280
10469641.000000;149.0280
10474968.000000;149.0280
10480302.000000;149.0280
10485603.000000;149.0280
10490907.000000;149.0280
10496261.000000;149.0280
10501606.000000;149.0280
10506935.000000;149.0280
10512359.000000;149.0280
10517708.000000;149.0280
10523060.000000;149.0280
10528359.000000;149.0280
10533758.000000;149.0280
10539049.000000;149.0280
10544356.000000;149.0280
10549694.000000;149.0280
10555053.000000;149.0280
10560420.000000;149.0280
10565781.000000;149.1100
10571441.000000;149.1100
10577178.000000;149.1100
10582504.000000;149.1100
10587969.000000;149.1100
10593614.000000;149.1100
10598951.000000;149.1100
10604757.000000;149.1100
10610132.000000;149.1100
10615456.000000;149.1100
10620926.000000;149.1100
10626304.000000;149.1100
10631672.000000;149.1100
10637146.000000;149.1100
10642719.000000;149.1100
10648125.000000;149.1100
10653580.000000;149.1100
10658894.000000;149.1100
10664575.000000;149.1100
10669854.000000;148.9120
10675183.000000;148.9120
10680596.000000;148.9120
10686151.000000;148.9120
10691525.000000;148.9120
10696785.000000;148.9120
10702468.000000;148.9120
10707803.000000;148.9120
10713339.000000;148.9120
10718679.000000;148.9120
10723938.000000;148.9120
10729343.000000;148.9120
10734653.000000;148.9120
10740032.000000;148.9120
10745675.000000;148.9120
10751075.000000;148.9120
10756449.000000;148.9120
10761720.000000;148.9120
10767194.000000;148.9120
10772903.000000;148.9060
10778275.000000;148.9060
10783736.000000;148.9060
10789101.000000;148.9060
10795331.000000;148.9060
10800925.000000;148.9060
10806286.000000;148.9060
10811660.000000;148.9060
10817082.000000;148.9060
10822398.000000;148.9060
10827734.000000;148.9060
10833276.000000;148.9060
10838586.000000;148.9060
10844221.000000;148.9060
10849552.000000;148.9060
10854874.000000;148.9060
10860261.000000;148.9060
10865738.000000;148.9060
10871103.000000;148.9060
10876459.000000;147.9430
10881863.000000;147.9430
10887252.000000;147.9430
10892581.000000;147.9430
10897983.000000;147.9430
10903339.000000;147.9430
10908664.000000;147.9430
10913979.000000;147.9430
10919351.000000;147.9430
10924726.000000;147.9430
10930035.000000;147.9430
10935362.000000;147.9430
10941175.000000;147.9430
10946518.000000;147.9430
10951848.000000;147.9430
10957189.000000;147.9430
10962680.000000;147.9430
10968023.000000;147.9430
10973407.000000;147.9430
10978874.000000;148.1050
10984178.000000;148.1050
10989542.000000;148.1050
10994948.000000;148.1050
11000349.000000;148.1050
11005779.000000;148.1050
11011482.000000;148.1050
11016897.000000;148.1050
11022216.000000;148.1050
11027542.000000;148.1050
11033094.000000;148.1050
11038425.000000;148.1050
11043769.000000;148.1050
11049348.000000;148.1050
11054725.000000;148.1050
11060054.000000;148.1050
11065375.000000;148.1050
11070730.000000;148.1050
11076087.000000;148.1050
11081430.000000;147.9560
11086791.000000;147.9560
11092146.000000;147.9560
11097715.000000;147.9560
11103058.000000;147.9560
11108435.000000;147.9560
11113869.000000;147.9560
11119232.000000;147.9560
11124646.000000;147.9560
11129980.000000;147.9560
11135420.000000;147.9560
11140816.000000;147.9560
11146168.000000;147.9560
11151538.000000;147.9560
11156889.000000;147.9560
11162337.000000;147.9560
11167692.000000;147.9560
11173101.000000;147.9560
11178613.000000;147.9560
11184038.000000;147.9670
11189392.000000;147.9670
11194784.000000;147.9670
11200196.000000;147.9670
11205598.000000;147.9670
11210945.000000;147.9670
11216346.000000;147.9670
11221709.000000;147.9670
11227334.000000;147.9670
11232667.000000;147.9670
11238033.000000;147.9670
11243422.000000;147.9670
11248772.000000;147.9670
11254081.000000;147.9670
11259396.000000;147.9670
11264740.000000;147.9670
11270123.000000;147.9670
11275505.000000;147.9670
11280829.000000;147.9670
11286147.000000;147.9670
11291459.000000;147.8030
11296775.000000;147.8030
11302089.000000;147.8030
11309576.000000;147.8030
11315069.000000;147.8030
11320580.000000;147.8030
11325925.000000;147.8030
11331256.000000;147.8030
11336831.000000;147.8030
11342227.000000;147.8030
11347548.000000;147.8030
11352914.000000;147.8030
11358251.000000;147.8030
11363562.000000;147.8030
11369263.000000;147.8030
11374585.000000;147.8030
11379908.000000;147.8030
11385359.000000;147.8030
11390771.000000;147.8100
11396124.000000;147.8100
11401647.000000;147.8100
11407012.000000;147.8100
11412332.000000;147.8100
11417686.000000;147.8100
11423171.000000;147.8100
11428469.000000;147.8100
11433848.000000;147.8100
11439185.000000;147.8100
11444530.000000;147.8100
11450124.000000;147.8100
11455464.000000;147.8100
11460861.000000;147.8100
11466400.000000;147.8100
11471724.000000;147.8100
11477131.000000;147.8100
11482557.000000;147.8100
11487934.000000;147.8100
11493216.000000;147.8100
11498550.000000;147.9210
11504219.000000;147.9210
11509559.000000;147.9210
11514947.000000;147.9210
11521582.000000;147.9210
11527187.000000;147.9210
11532531.000000;147.9210
11537876.000000;147.9210
11543276.000000;147.9210
11548847.000000;147.9210
11554184.000000;147.9210
11559547.000000;147.9210
11564922.000000;147.9210
11570540.000000;147.9210
11575911.000000;147.9210
11581234.000000;147.9210
11586559.000000;147.9210
11591929.000000;147.9210
11597302.000000;147.6850
11602664.000000;147.6850
11608059.000000;147.6850
11613400.000000;147.6850
11618902.000000;147.6850
11624207.000000;147.6850
11629577.000000;147.6850
11635209.000000;147.6850
11640549.000000;147.6850
11645910.000000;147.6850
11651234.000000;147.6850
11656707.000000;147.6850
11662057.000000;147.6850
11667400.000000;147.6850
11672788.000000;147.6850
11678301.000000;147.6850
11683625.000000;147.6850
11689025.000000;147.6850
11694350.000000;147.6850
11699878.000000;147.6850
11705265.000000;147.8370
11710641.000000;147.8370
11716113.000000;147.8370
11721459.000000;147.8370
11726770.000000;147.8370
11732117.000000;147.8370
11737454.000000;147.8370
11742855.000000;147.8370
11748161.000000;147.8370
11753479.000000;147.8370
11758801.000000;147.8370
11764259.000000;147.8370
11769635.000000;147.8370
11774976.000000;147.8370
11780347.000000;147.8370
11785711.000000;147.8370
11791067.000000;147.8370
11796398.000000;147.8370
11801973.000000;147.8370
11807643.000000;147.7520
11813176.000000;147.7520
11818570.000000;147.7520
11823879.000000;147.7520
11829282.000000;147.7520
11834674.000000;147.7520
11840049.000000;147.7520
11845417.000000;147.7520
11850762.000000;147.7520
11858972.000000;147.7520
11864322.000000;147.7520
11869699.000000;147.7520
11875098.000000;147.7520
11880488.000000;147.7520
11885829.000000;147.7520
11891204.000000;147.7520
11896725.000000;147.7520
11902104.000000;147.7520
11907459.000000;148.6070
11912872.000000;148.6070
11918302.000000;148.6070
11923665.000000;148.6070
11929133.000000;148.6070
11936075.000000;148.6070
11941726.000000;148.6070
11947053.000000;148.6070
11952407.000000;148.6070
11957780.000000;148.6070
11963196.000000;148.6070
11968545.000000;148.6070
11973902.000000;148.6070
11979233.000000;148.6070
11984596.000000;148.6070
11989973.000000;148.6070
11995389.000000;148.6070
12000749.000000;148.6070
12006104.000000;148.6070
12011570.000000;147.7610
12016930.000000;147.7610
12022273.000000;147.7610
12027726.000000;147.7610
12033141.000000;147.7610
12038478.000000;147.7610
12044033.000000;147.7610
12049361.000000;147.7610
12054694.000000;147.7610
12060029.000000;147.7610
12065499.000000;147.7610
12070873.000000;147.7610
12076270.000000;147.7610
12081640.000000;147.7610
12087036.000000;147.7610
12092658.000000;147.7610
12098018.000000;147.7610
12103389.000000;147.7610
12108759.000000;147.7610
12117270.000000;147.8780
12122796.000000;147.8780
12128155.000000;147.8780
12133490.000000;147.8780
12138912.000000;147.8780
12144269.000000;147.8780
12149584.000000;147.8780
12154939.000000;147.8780
12160537.000000;147.8780
12165896.000000;147.8780
12171310.000000;147.8780
12176686.000000;147.8780
12182109.000000;147.8780
12187458.000000;147.8780
12192875.000000;147.8780
12198246.000000;147.8780
12203610.000000;147.8780
12209204.000000;147.8780
12214574.000000;147.8780
12219884.000000;147.1860
12225237.000000;147.1860
12230710.000000;147.1860
12236119.000000;147.1860
12241468.000000;147.1860
12246869.000000;147.1860
12252249.000000;147.1860
12257606.000000;147.1860
12263042.000000;147.1860
12268406.000000;147.1860
12273748.000000;147.1860
12279123.000000;147.1860
12284525.000000;147.1860
12289871.000000;147.1860
12295221.000000;147.1860
12300585.000000;147.1860
12305956.000000;147.1860
12311379.000000;147.1860
12316722.000000;147.1860
12322072.000000;146.7230
12327607.000000;146.7230
12332975.000000;146.7230
12338337.000000;146.7230
12343702.000000;146.7230
12349135.000000;146.7230
12354514.000000;146.7230
12359952.000000;146.7230
12365349.000000;146.7230
12370697.000000;146.7230
12376098.000000;146.7230
12381427.000000;146.7230
12386937.000000;146.7230
12392242.000000;146.7230
12397599.000000;146.7230
12403149.000000;146.7230
12408541.000000;146.7230
12413909.000000;146.7230
12419251.000000;146.7230
12424725.000000;146.7790
12430073.000000;146.7790
12435435.000000;146.7790
12440882.000000;146.7790
12446232.000000;146.7790
12451601.000000;146.7790
12457031.000000;146.7790
12462406.000000;146.7790
12467811.000000;146.7790
12473225.000000;146.7790
12478515.000000;146.7790
12484274.000000;146.7790
12489624.000000;146.7790
12495035.000000;146.7790
12500370.000000;146.7790
12505780.000000;146.7790
12511121.000000;146.7790
12516452.000000;146.7790
12521979.000000;146.7790
12527331.000000;146.0940
12532762.000000;146.0940
12538133.000000;146.0940
12543496.000000;146.0940
12549101.000000;146.0940
12554472.000000;146.0940
12559830.000000;146.0940
12565260.000000;146.0940
12570611.000000;146.0940
12575980.000000;146.0940
12581390.000000;146.0940
12586882.000000;146.0940
12592223.000000;146.0940
12597568.000000;146.0940
12602913.000000;146.0940
12608260.000000;146.0940
12613584.000000;146.0940
12618973.000000;146.0940
12624335.000000;146.0940
12629935.000000;146.3150
12635405.000000;146.3150
12640758.000000;146.3150
12646155.000000;146.3150
12651518.000000;146.3150
12656939.000000;146.3150
12662295.000000;146.3150
12667663.000000;146.3150
12673220.000000;146.3150
12678532.000000;146.3150
12683908.000000;146.3150
12689298.000000;146.3150
12694671.000000;146.3150
12700161.000000;146.3150
12705512.000000;146.3150
12710853.000000;146.3150
12716193.000000;146.3150
12721530.000000;146.3150
12727284.000000;146.3150
12732601.000000;146.4000
12737952.000000;146.4000
12743332.000000;146.4000
12748914.000000;146.4000
12754254.000000;146.4000
12759597.000000;146.4000
12764925.000000;146.4000
12770485.000000;146.4000
12775879.000000;146.4000
12781295.000000;146.4000
12791613.000000;146.4000
12800185.000000;146.4000
12806365.000000;146.4000
12811771.000000;146.4000
12817121.000000;146.4000
12822645.000000;146.4000
12828003.000000;146.4000
12833331.000000;146.4000
12838669.000000;146.4620
12844269.000000;146.4620
12849611.000000;146.4620
12854956.000000;146.4620
12860442.000000;146.4620
12865850.000000;146.4620
12871273.000000;146.4620
12876738.000000;146.4620
12882091.000000;146.4620
12887473.000000;146.4620
12893175.000000;146.4620
12898519.000000;146.4620
12903872.000000;146.4620
12909349.000000;146.4620
12914702.000000;146.4620
12920100.000000;146.4620
12925445.000000;146.4620
12931153.000000;146.4620
12936559.000000;146.4620
12942744.000000;145.7460
12948958.000000;145.7460
12954385.000000;145.7460
12959728.000000;145.7460
12965249.000000;145.7460
12970748.000000;145.7460
12976114.000000;145.7460
12981500.000000;145.7460
12986902.000000;145.7460
12992224.000000;145.7460
12997833.000000;145.7460
13003166.000000;145.7460
13008523.000000;145.7460
13013998.000000;145.7460
13019364.000000;145.7460
13024969.000000;145.7460
13030344.000000;145.7460
13035734.000000;145.7460
13041382.000000;145.7460
13046972.000000;145.6790
13052394.000000;145.6790
13057950.000000;145.6790
13063356.000000;145.6790
13068779.000000;145.6790
13074441.000000;145.6790
13079806.000000;145.6790
13085216.000000;145.6790
13090819.000000;145.6790
13096350.000000;145.6790
13101837.000000;145.6790
13107267.000000;145.6790
13113283.000000;145.6790
13118654.000000;145.6790
13124046.000000;145.6790
13129459.000000;145.6790
13134889.000000;145.6790
13140511.000000;145.6790
13146170.000000;145.6790
13151759.000000;145.9170
13157177.000000;145.9170
13162580.000000;145.9170
13167953.000000;145.9170
13173655.000000;145.9170
13179178.000000;145.9170
13184576.000000;145.9170
13190176.000000;145.9170
13195545.000000;145.9170
13200867.000000;145.9170
13206265.000000;145.9170
13211701.000000;145.9170
13217308.000000;145.9170
13222873.000000;145.9170
13228274.000000;145.9170
13233656.000000;145.9170
13239038.000000;145.9170
13244460.000000;145.9170
13250196.000000;145.8290
13255577.000000;145.8290
13260973.000000;145.8290
13266372.000000;145.8290
13271818.000000;145.8290
13277227.000000;145.8290
13282975.000000;145.8290
13288332.000000;145.8290
13293698.000000;145.8290
13299037.000000;145.8290
13304490.000000;145.8290
13309956.000000;145.8290
13315310.000000;145.8290
13320685.000000;145.8290
13326285.000000;145.8290
13331655.000000;145.8290
13336992.000000;145.8290
13342363.000000;145.8290
13347809.000000;145.8290
13353188.000000;146.3550
13358560.000000;146.3550
13363978.000000;146.3550
13369496.000000;146.3550
13374874.000000;146.3550
13380216.000000;146.3550
13385539.000000;146.3550
13390887.000000;146.3550
13396399.000000;146.3550
13401771.000000;146.3550
13407067.000000;146.3550
13412525.000000;146.3550
13417872.000000;146.3550
13423277.000000;146.3550
13428612.000000;146.3550
13434064.000000;146.3550
13439459.000000;146.3550
13444998.000000;146.3550
13450358.000000;146.3550
13455708.000000;146.3550
13461128.000000;145.0820
13466606.000000;145.0820
13471999.000000;145.0820
13477350.000000;145.0820
13482867.000000;145.0820
13488248.000000;145.0820
13493639.000000;145.0820
13499002.000000;145.0820
13504459.000000;145.0820
13509850.000000;145.0820
13515406.000000;145.0820
13520752.000000;145.0820
13526137.000000;145.0820
13531483.000000;145.0820
13536894.000000;145.0820
13542738.000000;145.0820
13549660.000000;145.0820
13555341.000000;145.0820
13561183.000000;144.1700
13566920.000000;144.1700
13573126.000000;144.1700
13578979.000000;144.1700
13584748.000000;144.1700
13590478.000000;144.1700
13596147.000000;144.1700
13601803.000000;144.1700
13607576.000000;144.1700
13613544.000000;144.1700
13618825.000000;144.1700
13624128.000000;144.1700
13629602.000000;144.1700
13635269.000000;144.1700
13640598.000000;144.1700
13645887.000000;144.1700
13651552.000000;144.1700
13657102.000000;144.1700
13662378.000000;144.1700
13667639.000000;133.9540
13672881.000000;133.9540
13678534.000000;133.9540
13685209.000000;133.9540
13691223.000000;133.9540
13696897.000000;133.9540
13702502.000000;133.9540
13707796.000000;133.9540
13713065.000000;133.9540
13718440.000000;133.9540
13723715.000000;133.9540
13729305.000000;133.9540
13735109.000000;133.9540
13740876.000000;133.9540
13746174.000000;133.9540
13752048.000000;133.9540
13757310.000000;133.9540
13762962.000000;133.9540
13768268.000000;123.6570
13773714.000000;123.6570
13778984.000000;123.6570
13785550.000000;123.6570
13790835.000000;123.6570
13796652.000000;123.6570
13801947.000000;123.6570
13807599.000000;123.6570
13812847.000000;123.6570
13818357.000000;123.6570
13823617.000000;123.6570
13828874.000000;123.6570
13838751.000000;123.6570
13845245.000000;123.6570
13850536.000000;123.6570
13855840.000000;123.6570
13861127.000000;123.6570
13866412.000000;123.6570
13871865.000000;113.3760
13877295.000000;113.3760
13882575.000000;113.3760
13888037.000000;113.3760
13893309.000000;113.3760
13898928.000000;113.3760
13904214.000000;113.3760
13909679.000000;113.3760
13915388.000000;113.3760
13921217.000000;113.3760
13926490.000000;113.3760
13931761.000000;113.3760
13937057.000000;113.3760
13942363.000000;113.3760
13947932.000000;113.3760
13953190.000000;113.3760
13958848.000000;113.3760
13964585.000000;113.3760
13970371.000000;113.3760
13975617.000000;103.8210
13981261.000000;103.8210
13986544.000000;103.8210
13991819.000000;103.8210
13997138.000000;103.8210
14002672.000000;103.8210
14008345.000000;103.8210
14014065.000000;103.8210
14019354.000000;103.8210
14024627.000000;103.8210
14030170.000000;103.8210
14035447.000000;103.8210
14041188.000000;103.8210
14046839.000000;103.8210
14052541.000000;103.8210
14058304.000000;103.8210
14063925.000000;103.8210
14069242.000000;103.8210
14074559.000000;103.8210
14079877.000000;94.3880
14085369.000000;94.3880
14090672.000000;94.3880
14096358.000000;94.3880
14102293.000000;94.3880
14107572.000000;94.3880
14113349.000000;94.3880
14118956.000000;94.3880
14124216.000000;94.3880
14129882.000000;94.3880
14135165.000000;94.3880
14140823.000000;94.3880
14146133.000000;94.3880
14165613.000000;94.3880